"BIO-KINE ASCII FILE"
"_COMMENT"	"MOS-500 Spectrometer"
"_COMMENT"	"Kinetics measurement"
"_COMMENT"	"Y Unit : Volt,  X Unit : s"
"_COMMENT"	"Excitation wavelength : 380 nm"
"_COMMENT"	"Fentes bandwidth =  1 nm"
"_COMMENT"	"HV= 1000V"
"_COMMENT"	"Timebase  1 =  .01 s   5001 pts"
"_SFM"	"SFM-400 /S  Advanced mode"
"_SFM"	"Ratio : S1: 2.5, S2: 0, S3: 0, S4: 1"
"_SFM"	"Content : S1: , S2: , S3: , S4:"
"_SFM"	"Concentration : S1: , S2: , S3: , S4:"
"_SFM"	"Total volume : 209 µl  Flow : 3.5 mL/s"
"_SFM"	"Acquisition start :  10 ms before stop"
"_SFM"	"cuve=FC-15, s1=10 ml , s2=10 ml , s3=10 ml , s4=1.9 ml"
"_UNITX"	"s"
"_UNITY"	"Volt"
"_DELTAX"	0
"_DATA"
1e-300	8.2349
0.01	8.47142
0.02	8.62241
0.03	8.77439
0.04	8.88557
0.05	8.98327
0.06	8.94018
0.07	8.9484
0.08	9.00268
0.09	9.00071
0.1	8.98294
0.11	9.00498
0.12	9.04742
0.13	8.99281
0.14	8.99051
0.15	9.04643
0.16	9.03492
0.17	9.01025
0.18	9.01781
0.19	9.07571
0.2	9.05334
0.21	8.99446
0.22	8.99018
0.23	8.98755
0.24	9.03426
0.25	9.00531
0.26	8.95433
0.27	8.99972
0.28	9.00762
0.29	8.97834
0.3	9.0211
0.31	9.01781
0.32	8.99906
0.33	8.95827
0.34	9.00137
0.35	9.0086
0.36	8.98656
0.37	9.00433
0.38	8.98492
0.39	9.00466
0.4	9.00038
0.41	8.98097
0.42	8.98262
0.43	8.97373
0.44	8.94511
0.45	8.99413
0.46	8.99577
0.47	8.97077
0.48	9.04018
0.49	9.01123
0.5	8.99413
0.51	8.96058
0.52	8.979
0.53	8.97735
0.54	8.97505
0.55	8.88985
0.56	8.92472
0.57	8.96058
0.58	8.9313
0.59	8.97966
0.6	8.91222
0.61	8.90597
0.62	8.85531
0.63	8.87735
0.64	8.88228
0.65	8.90729
0.66	8.9109
0.67	8.87636
0.68	8.90498
0.69	8.93985
0.7	8.91682
0.71	8.87801
0.72	8.83163
0.73	8.85202
0.74	8.86781
0.75	8.85268
0.76	8.87472
0.77	8.86748
0.78	8.80827
0.79	8.84939
0.8	8.83985
0.81	8.91386
0.82	8.87867
0.83	8.85597
0.84	8.87768
0.85	8.79412
0.86	8.76551
0.87	8.77537
0.88	8.81584
0.89	8.82801
0.9	8.75465
0.91	8.78459
0.92	8.77143
0.93	8.80498
0.94	8.7836
0.95	8.74445
0.96	8.77801
0.97	8.75827
0.98	8.77899
0.99	8.79116
1	8.77176
1.01	8.72833
1.02	8.74445
1.03	8.79347
1.04	8.7586
1.05	8.72998
1.06	8.7359
1.07	8.70268
1.08	8.79544
1.09	8.74412
1.1	8.69445
1.11	8.7359
1.12	8.71518
1.13	8.68623
1.14	8.67406
1.15	8.68064
1.16	8.70432
1.17	8.72406
1.18	8.70037
1.19	8.69511
1.2	8.70531
1.21	8.72143
1.22	8.68557
1.23	8.66748
1.24	8.66123
1.25	8.63228
1.26	8.60827
1.27	8.61616
1.28	8.63425
1.29	8.64116
1.3	8.62669
1.31	8.68787
1.32	8.64906
1.33	8.61616
1.34	8.63985
1.35	8.66024
1.36	8.61682
1.37	8.62471
1.38	8.6382
1.39	8.66616
1.4	8.59445
1.41	8.57636
1.42	8.62471
1.43	8.61682
1.44	8.61846
1.45	8.60892
1.46	8.56386
1.47	8.56813
1.48	8.67142
1.49	8.66814
1.5	8.63919
1.51	8.57932
1.52	8.59511
1.53	8.53524
1.54	8.58129
1.55	8.6507
1.56	8.61419
1.57	8.58952
1.58	8.55859
1.59	8.64346
1.6	8.56715
1.61	8.52899
1.62	8.57636
1.63	8.57669
1.64	8.58655
1.65	8.56155
1.66	8.54149
1.67	8.5382
1.68	8.54445
1.69	8.48557
1.7	8.54412
1.71	8.528
1.72	8.55563
1.73	8.48951
1.74	8.51912
1.75	8.52274
1.76	8.45497
1.77	8.48392
1.78	8.49083
1.79	8.48162
1.8	8.48425
1.81	8.50432
1.82	8.47175
1.83	8.45793
1.84	8.52274
1.85	8.46385
1.86	8.43918
1.87	8.48129
1.88	8.44247
1.89	8.41418
1.9	8.47274
1.91	8.49708
1.92	8.48984
1.93	8.49478
1.94	8.40629
1.95	8.44905
1.96	8.43721
1.97	8.41155
1.98	8.36287
1.99	8.37997
2	8.48425
2.01	8.38918
2.02	8.36418
2.03	8.39477
2.04	8.40333
2.05	8.38129
2.06	8.34214
2.07	8.38359
2.08	8.38425
2.09	8.38194
2.1	8.378
2.11	8.40497
2.12	8.40168
2.13	8.37602
2.14	8.38556
2.15	8.3882
2.16	8.38918
2.17	8.39806
2.18	8.37339
2.19	8.3326
2.2	8.31747
2.21	8.32865
2.22	8.27076
2.23	8.32602
2.24	8.27569
2.25	8.32438
2.26	8.33096
2.27	8.31286
2.28	8.28425
2.29	8.31155
2.3	8.31056
2.31	8.27503
2.32	8.31813
2.33	8.31879
2.34	8.28589
2.35	8.3099
2.36	8.27175
2.37	8.25596
2.38	8.29806
2.39	8.2974
2.4	8.25069
2.41	8.27865
2.42	8.31089
2.43	8.2553
2.44	8.28227
2.45	8.25563
2.46	8.27635
2.47	8.22964
2.48	8.24082
2.49	8.26352
2.5	8.28326
2.51	8.23951
2.52	8.20694
2.53	8.22997
2.54	8.21451
2.55	8.24313
2.56	8.25102
2.57	8.29214
2.58	8.22076
2.59	8.26221
2.6	8.20957
2.61	8.19082
2.62	8.2576
2.63	8.20365
2.64	8.1974
2.65	8.11911
2.66	8.20332
2.67	8.19707
2.68	8.12437
2.69	8.14181
2.7	8.14049
2.71	8.18786
2.72	8.16549
2.73	8.08687
2.74	8.16648
2.75	8.14839
2.76	8.12766
2.77	8.15562
2.78	8.19806
2.79	8.18359
2.8	8.13095
2.81	8.13819
2.82	8.13589
2.83	8.13523
2.84	8.04904
2.85	8.1122
2.86	8.13227
2.87	8.15924
2.88	8.11516
2.89	8.07536
2.9	8.10266
2.91	8.10628
2.92	8.11187
2.93	8.16648
2.94	8.10661
2.95	8.13589
2.96	8.04773
2.97	8.08852
2.98	8.05529
2.99	8.07996
3	8.11385
3.01	8.08852
3.02	8.1599
3.03	8.12437
3.04	8.05332
3.05	8.05365
3.06	8.07667
3.07	8.1576
3.08	8.11977
3.09	8.07635
3.1	8.13983
3.11	8.07832
3.12	8.05003
3.13	8.05463
3.14	8.10595
3.15	8.05463
3.16	8.0474
3.17	8.05167
3.18	8.04082
3.19	8.01253
3.2	8.02569
3.21	8.052
3.22	8.04345
3.23	8.02338
3.24	8.05003
3.25	8.05661
3.26	7.98457
3.27	7.99279
3.28	8.02075
3.29	7.98029
3.3	8.03588
3.31	7.98095
3.32	7.97799
3.33	7.9793
3.34	7.95694
3.35	7.98819
3.36	8.01055
3.37	8.02371
3.38	8.0099
3.39	7.98358
3.4	7.93292
3.41	7.97075
3.42	8.00858
3.43	7.95924
3.44	7.9849
3.45	7.96121
3.46	7.97634
3.47	8.00924
3.48	8.03062
3.49	7.98523
3.5	7.93193
3.51	7.95628
3.52	7.93259
3.53	7.91582
3.54	7.91911
3.55	7.95134
3.56	7.91845
3.57	7.9543
3.58	7.9349
3.59	7.96055
3.6	7.9145
3.61	7.97207
3.62	7.92141
3.63	7.88917
3.64	7.91187
3.65	7.9247
3.66	7.9418
3.67	7.9793
3.68	7.94411
3.69	7.90463
3.7	7.91351
3.71	7.92996
3.72	7.92536
3.73	7.89082
3.74	7.902
3.75	7.87305
3.76	7.87733
3.77	7.84674
3.78	7.82864
3.79	7.83785
3.8	7.86943
3.81	7.90397
3.82	7.86318
3.83	7.87206
3.84	7.85562
3.85	7.87503
3.86	7.85002
3.87	7.78292
3.88	7.8497
3.89	7.85627
3.9	7.85792
3.91	7.86878
3.92	7.84279
3.93	7.83193
3.94	7.80858
3.95	7.85068
3.96	7.81877
3.97	7.83884
3.98	7.8441
3.99	7.79772
4	7.802
4.01	7.86647
4.02	7.85956
4.03	7.83752
4.04	7.82141
4.05	7.81022
4.06	7.84246
4.07	7.7816
4.08	7.79904
4.09	7.78555
4.1	7.82996
4.11	7.82766
4.12	7.7793
4.13	7.77305
4.14	7.81614
4.15	7.76779
4.16	7.74936
4.17	7.78325
4.18	7.79838
4.19	7.74344
4.2	7.75002
4.21	7.78094
4.22	7.79312
4.23	7.81548
4.24	7.76515
4.25	7.76746
4.26	7.73127
4.27	7.73917
4.28	7.76943
4.29	7.74048
4.3	7.72371
4.31	7.75331
4.32	7.72831
4.33	7.73292
4.34	7.71844
4.35	7.73588
4.36	7.73259
4.37	7.69377
4.38	7.68061
4.39	7.70232
4.4	7.70101
4.41	7.71877
4.42	7.69706
4.43	7.72732
4.44	7.73522
4.45	7.7543
4.46	7.7589
4.47	7.73357
4.48	7.72107
4.49	7.72403
4.5	7.67239
4.51	7.74904
4.52	7.67469
4.53	7.66877
4.54	7.67634
4.55	7.70956
4.56	7.71351
4.57	7.70068
4.58	7.69542
4.59	7.69871
4.6	7.68423
4.61	7.63259
4.62	7.60561
4.63	7.66614
4.64	7.67436
4.65	7.68423
4.66	7.65463
4.67	7.67963
4.68	7.69114
4.69	7.64903
4.7	7.66943
4.71	7.66614
4.72	7.62008
4.73	7.66219
4.74	7.64838
4.75	7.65956
4.76	7.63851
4.77	7.6543
4.78	7.62107
4.79	7.60824
4.8	7.55627
4.81	7.62403
4.82	7.6293
4.83	7.64311
4.84	7.59048
4.85	7.57008
4.86	7.65002
4.87	7.66022
4.88	7.68785
4.89	7.64903
4.9	7.62403
4.91	7.62403
4.92	7.59114
4.93	7.5316
4.94	7.54344
4.95	7.55989
4.96	7.57502
4.97	7.54015
4.98	7.59541
4.99	7.60364
5	7.62633
5.01	7.63982
5.02	7.56285
5.03	7.58291
5.04	7.65068
5.05	7.57436
5.06	7.57765
5.07	7.54771
5.08	7.59443
5.09	7.55627
5.1	7.53028
5.11	7.60824
5.12	7.60594
5.13	7.58752
5.14	7.58851
5.15	7.54212
5.16	7.6089
5.17	7.63193
5.18	7.60495
5.19	7.53489
5.2	7.54245
5.21	7.57107
5.22	7.58127
5.23	7.58094
5.24	7.55495
5.25	7.58127
5.26	7.56482
5.27	7.54443
5.28	7.57239
5.29	7.56219
5.3	7.5214
5.31	7.55199
5.32	7.52535
5.33	7.59147
5.34	7.51942
5.35	7.56219
5.36	7.56054
5.37	7.52995
5.38	7.50495
5.39	7.46646
5.4	7.51646
5.41	7.51252
5.42	7.52995
5.43	7.54739
5.44	7.54804
5.45	7.48258
5.46	7.46416
5.47	7.45166
5.48	7.47469
5.49	7.53489
5.5	7.47403
5.51	7.4839
5.52	7.4612
5.53	7.47929
5.54	7.51153
5.55	7.49837
5.56	7.39936
5.57	7.46252
5.58	7.49081
5.59	7.48752
5.6	7.49278
5.61	7.46712
5.62	7.44442
5.63	7.44376
5.64	7.47765
5.65	7.48061
5.66	7.4635
5.67	7.49475
5.68	7.42172
5.69	7.45528
5.7	7.47469
5.71	7.4635
5.72	7.37337
5.73	7.39936
5.74	7.45462
5.75	7.4885
5.76	7.40133
5.77	7.46284
5.78	7.47469
5.79	7.45758
5.8	7.38389
5.81	7.42041
5.82	7.40988
5.83	7.40725
5.84	7.41449
5.85	7.41876
5.86	7.37271
5.87	7.41811
5.88	7.42501
5.89	7.42205
5.9	7.3658
5.91	7.40396
5.92	7.39738
5.93	7.40988
5.94	7.44705
5.95	7.40857
5.96	7.36712
5.97	7.37403
5.98	7.41811
5.99	7.40297
6	7.36383
6.01	7.36909
6.02	7.40001
6.03	7.33027
6.04	7.37995
6.05	7.376
6.06	7.37962
6.07	7.37403
6.08	7.39738
6.09	7.41218
6.1	7.38324
6.11	7.40725
6.12	7.3964
6.13	7.37205
6.14	7.36942
6.15	7.37304
6.16	7.36909
6.17	7.3908
6.18	7.39409
6.19	7.40166
6.2	7.32139
6.21	7.34804
6.22	7.326
6.23	7.36876
6.24	7.32501
6.25	7.29475
6.26	7.40593
6.27	7.35495
6.28	7.31317
6.29	7.37468
6.3	7.33258
6.31	7.32731
6.32	7.28323
6.33	7.3056
6.34	7.34672
6.35	7.3306
6.36	7.34014
6.37	7.31021
6.38	7.30659
6.39	7.33751
6.4	7.34837
6.41	7.32139
6.42	7.3158
6.43	7.30922
6.44	7.33291
6.45	7.29442
6.46	7.31547
6.47	7.30297
6.48	7.26744
6.49	7.33554
6.5	7.36778
6.51	7.3181
6.52	7.29935
6.53	7.31712
6.54	7.251
6.55	7.26646
6.56	7.28159
6.57	7.29047
6.58	7.28587
6.59	7.27304
6.6	7.29606
6.61	7.31975
6.62	7.29277
6.63	7.2931
6.64	7.30823
6.65	7.30791
6.66	7.22731
6.67	7.29475
6.68	7.2658
6.69	7.30692
6.7	7.29179
6.71	7.25988
6.72	7.29179
6.73	7.2158
6.74	7.28718
6.75	7.25593
6.76	7.23389
6.77	7.22534
6.78	7.31185
6.79	7.31317
6.8	7.27731
6.81	7.2181
6.82	7.18455
6.83	7.24475
6.84	7.22205
6.85	7.19968
6.86	7.25231
6.87	7.22534
6.88	7.22534
6.89	7.22764
6.9	7.25133
6.91	7.2783
6.92	7.24146
6.93	7.23389
6.94	7.20823
6.95	7.23323
6.96	7.20461
6.97	7.26054
6.98	7.2635
6.99	7.24113
7	7.19014
7.01	7.20889
7.02	7.25067
7.03	7.2556
7.04	7.21251
7.05	7.24573
7.06	7.19343
7.07	7.18948
7.08	7.23652
7.09	7.20428
7.1	7.20428
7.11	7.20593
7.12	7.17994
7.13	7.20889
7.14	7.23685
7.15	7.23948
7.16	7.1829
7.17	7.14178
7.18	7.18027
7.19	7.19738
7.2	7.24244
7.21	7.24705
7.22	7.21613
7.23	7.17501
7.24	7.18224
7.25	7.17139
7.26	7.17402
7.27	7.20527
7.28	7.20527
7.29	7.15132
7.3	7.21942
7.31	7.16251
7.32	7.1408
7.33	7.16481
7.34	7.20955
7.35	7.21777
7.36	7.17501
7.37	7.14244
7.38	7.19507
7.39	7.21876
7.4	7.15692
7.41	7.15231
7.42	7.14573
7.43	7.17435
7.44	7.19738
7.45	7.24968
7.46	7.18488
7.47	7.19047
7.48	7.17928
7.49	7.20725
7.5	7.10626
7.51	7.19047
7.52	7.16744
7.53	7.12566
7.54	7.1283
7.55	7.17797
7.56	7.1579
7.57	7.12698
7.58	7.10757
7.59	7.13652
7.6	7.1306
7.61	7.0931
7.62	7.12534
7.63	7.12534
7.64	7.11481
7.65	7.15264
7.66	7.13224
7.67	7.1352
7.68	7.13816
7.69	7.09968
7.7	7.13784
7.71	7.15988
7.72	7.16514
7.73	7.11481
7.74	7.15001
7.75	7.14672
7.76	7.09606
7.77	7.11481
7.78	7.12501
7.79	7.11448
7.8	7.14672
7.81	7.14836
7.82	7.13685
7.83	7.0806
7.84	7.12632
7.85	7.08981
7.86	7.08586
7.87	7.10395
7.88	7.12797
7.89	7.16613
7.9	7.15264
7.91	7.09737
7.92	7.07468
7.93	7.07599
7.94	7.04639
7.95	7.05494
7.96	7.08981
7.97	7.12402
7.98	7.11119
7.99	7.07829
8	7.07402
8.01	7.07501
8.02	7.15165
8.03	7.09408
8.04	7.03816
8.05	7.01349
8.06	7.06908
8.07	7.06349
8.08	7.07237
8.09	7.10461
8.1	7.12961
8.11	7.10001
8.12	7.04211
8.13	7.05132
8.14	7.0931
8.15	7.12007
8.16	7.03553
8.17	7.06119
8.18	7.08356
8.19	7.08553
8.2	7.11909
8.21	7.11053
8.22	7.06645
8.23	7.02533
8.24	7.05922
8.25	7.04968
8.26	7.10099
8.27	7.05625
8.28	7.0477
8.29	7.08356
8.3	7.04244
8.31	7.01448
8.32	6.99869
8.33	7.01546
8.34	7.06481
8.35	7.04014
8.36	7.07402
8.37	7.08158
8.38	7.0204
8.39	7.00691
8.4	7.02204
8.41	6.98948
8.42	7.0329
8.43	7.04639
8.44	7.04639
8.45	7.025
8.46	7.05658
8.47	7.04441
8.48	7.04277
8.49	7.00362
8.5	7.02171
8.51	7.00987
8.52	6.97073
8.53	7.01941
8.54	7.01842
8.55	6.99079
8.56	7.00198
8.57	7.0454
8.58	6.99112
8.59	7.06152
8.6	7.02731
8.61	7.06777
8.62	7.05
8.63	7.00592
8.64	7.02237
8.65	6.96875
8.66	7.06974
8.67	7.07501
8.68	7.06382
8.69	7.04704
8.7	7.01152
8.71	7.06283
8.72	7.02862
8.73	7.02171
8.74	7.01316
8.75	7.0181
8.76	6.97402
8.77	6.97369
8.78	7.0056
8.79	7.05066
8.8	6.98948
8.81	6.99967
8.82	6.96678
8.83	6.99573
8.84	6.9977
8.85	7.00165
8.86	6.9454
8.87	6.96842
8.88	6.98224
8.89	6.97731
8.9	6.95757
8.91	6.9454
8.92	6.96678
8.93	6.98158
8.94	6.95625
8.95	6.97303
8.96	6.94178
8.97	6.93092
8.98	6.95362
8.99	6.96448
9	6.9454
9.01	6.98388
9.02	6.98487
9.03	7.00987
9.04	6.99737
9.05	6.96842
9.06	6.98125
9.07	6.93191
9.08	6.9227
9.09	6.94276
9.1	6.925
9.11	6.93454
9.12	6.94408
9.13	6.95165
9.14	6.9579
9.15	6.99112
9.16	6.97632
9.17	6.9931
9.18	6.96217
9.19	6.96678
9.2	6.93388
9.21	6.96513
9.22	6.97369
9.23	6.95329
9.24	7.00823
9.25	6.98586
9.26	7.02698
9.27	6.97862
9.28	6.92994
9.29	6.96119
9.3	6.95823
9.31	6.93882
9.32	6.88092
9.33	6.87566
9.34	6.89013
9.35	6.93684
9.36	6.95198
9.37	6.92763
9.38	6.94967
9.39	6.94605
9.4	6.95855
9.41	6.98586
9.42	6.94967
9.43	6.93915
9.44	6.96513
9.45	6.94869
9.46	6.90855
9.47	6.88322
9.48	6.92665
9.49	6.92138
9.5	6.88586
9.51	6.89408
9.52	6.92401
9.53	6.92796
9.54	6.93553
9.55	6.91875
9.56	6.89309
9.57	6.88849
9.58	6.91809
9.59	6.90395
9.6	6.91053
9.61	6.89441
9.62	6.88059
9.63	6.89441
9.64	6.95165
9.65	6.87829
9.66	6.89243
9.67	6.92599
9.68	6.89178
9.69	6.81974
9.7	6.93717
9.71	6.875
9.72	6.87368
9.73	6.92138
9.74	6.91513
9.75	6.87336
9.76	6.85099
9.77	6.89803
9.78	6.94869
9.79	6.94079
9.8	6.86842
9.81	6.92072
9.82	6.89638
9.83	6.85592
9.84	6.91283
9.85	6.92566
9.86	6.89441
9.87	6.8773
9.88	6.89079
9.89	6.83684
9.9	6.9023
9.91	6.93849
9.92	6.88158
9.93	6.86678
9.94	6.925
9.95	6.91678
9.96	6.90493
9.97	6.89967
9.98	6.9398
9.99	6.9125
10	6.84835
10.01	6.85493
10.02	6.88026
10.03	6.91579
10.04	6.87664
10.05	6.8727
10.06	6.8421
10.07	6.84737
10.08	6.87007
10.09	6.87993
10.1	6.85362
10.11	6.85493
10.12	6.86875
10.13	6.87237
10.14	6.87829
10.15	6.85099
10.16	6.83553
10.17	6.86974
10.18	6.83289
10.19	6.84967
10.2	6.86579
10.21	6.85493
10.22	6.86053
10.23	6.84046
10.24	6.8227
10.25	6.86842
10.26	6.8523
10.27	6.84737
10.28	6.85164
10.29	6.8352
10.3	6.8477
10.31	6.85559
10.32	6.78552
10.33	6.81974
10.34	6.8296
10.35	6.79276
10.36	6.83158
10.37	6.80033
10.38	6.85099
10.39	6.82927
10.4	6.82072
10.41	6.84342
10.42	6.86612
10.43	6.90395
10.44	6.86053
10.45	6.83454
10.46	6.83125
10.47	6.83783
10.48	6.83092
10.49	6.87763
10.5	6.86184
10.51	6.84967
10.52	6.85132
10.53	6.84375
10.54	6.84638
10.55	6.8625
10.56	6.79473
10.57	6.86316
10.58	6.82664
10.59	6.825
10.6	6.81941
10.61	6.80197
10.62	6.79079
10.63	6.83618
10.64	6.84835
10.65	6.83553
10.66	6.83947
10.67	6.77138
10.68	6.85592
10.69	6.87336
10.7	6.84046
10.71	6.81085
10.72	6.7898
10.73	6.82039
10.74	6.85493
10.75	6.84013
10.76	6.86941
10.77	6.80921
10.78	6.84013
10.79	6.85428
10.8	6.8125
10.81	6.825
10.82	6.84342
10.83	6.8
10.84	6.79539
10.85	6.79079
10.86	6.85921
10.87	6.84803
10.88	6.81908
10.89	6.83289
10.9	6.82467
10.91	6.76381
10.92	6.75559
10.93	6.85592
10.94	6.77927
10.95	6.7875
10.96	6.83816
10.97	6.8546
10.98	6.82401
10.99	6.85757
11	6.81677
11.01	6.80493
11.02	6.83816
11.03	6.83585
11.04	6.84013
11.05	6.79276
11.06	6.76908
11.07	6.78651
11.08	6.81217
11.09	6.80427
11.1	6.76118
11.11	6.75427
11.12	6.79704
11.13	6.82895
11.14	6.82533
11.15	6.79013
11.16	6.81349
11.17	6.80987
11.18	6.80658
11.19	6.81052
11.2	6.7444
11.21	6.73519
11.22	6.80395
11.23	6.79539
11.24	6.7921
11.25	6.74506
11.26	6.78717
11.27	6.73322
11.28	6.80427
11.29	6.81776
11.3	6.80329
11.31	6.77697
11.32	6.7569
11.33	6.74967
11.34	6.76381
11.35	6.75658
11.36	6.79704
11.37	6.81381
11.38	6.79046
11.39	6.75493
11.4	6.78059
11.41	6.7921
11.42	6.81875
11.43	6.8296
11.44	6.85691
11.45	6.79046
11.46	6.78388
11.47	6.76348
11.48	6.75197
11.49	6.79506
11.5	6.82664
11.51	6.76677
11.52	6.77302
11.53	6.77566
11.54	6.75921
11.55	6.78388
11.56	6.73848
11.57	6.78552
11.58	6.73092
11.59	6.7569
11.6	6.74934
11.61	6.73059
11.62	6.78158
11.63	6.78059
11.64	6.81184
11.65	6.73815
11.66	6.72105
11.67	6.72401
11.68	6.74408
11.69	6.74408
11.7	6.75427
11.71	6.72697
11.72	6.74671
11.73	6.73783
11.74	6.76118
11.75	6.73421
11.76	6.74243
11.77	6.69572
11.78	6.72236
11.79	6.75888
11.8	6.78914
11.81	6.74276
11.82	6.68782
11.83	6.73388
11.84	6.75033
11.85	6.75526
11.86	6.77072
11.87	6.75098
11.88	6.77368
11.89	6.73421
11.9	6.77993
11.91	6.75329
11.92	6.72368
11.93	6.74473
11.94	6.77434
11.95	6.78848
11.96	6.71052
11.97	6.72861
11.98	6.75131
11.99	6.7773
12	6.74671
12.01	6.78388
12.02	6.74736
12.03	6.70657
12.04	6.72697
12.05	6.71809
12.06	6.70032
12.07	6.65822
12.08	6.69144
12.09	6.72697
12.1	6.70888
12.11	6.74704
12.12	6.7375
12.13	6.7171
12.14	6.70526
12.15	6.72039
12.16	6.7375
12.17	6.70361
12.18	6.72829
12.19	6.7523
12.2	6.70526
12.21	6.66842
12.22	6.6819
12.23	6.69473
12.24	6.70921
12.25	6.73421
12.26	6.75789
12.27	6.72039
12.28	6.70953
12.29	6.7148
12.3	6.70263
12.31	6.68552
12.32	6.6694
12.33	6.66151
12.34	6.65855
12.35	6.67302
12.36	6.7319
12.37	6.71776
12.38	6.71875
12.39	6.74736
12.4	6.725
12.41	6.73223
12.42	6.68289
12.43	6.69769
12.44	6.69473
12.45	6.66513
12.46	6.68782
12.47	6.71776
12.48	6.68421
12.49	6.68848
12.5	6.71611
12.51	6.68717
12.52	6.69703
12.53	6.66217
12.54	6.7125
12.55	6.7125
12.56	6.74342
12.57	6.6671
12.58	6.64572
12.59	6.70197
12.6	6.64309
12.61	6.68322
12.62	6.7398
12.63	6.66677
12.64	6.72204
12.65	6.68552
12.66	6.69967
12.67	6.69671
12.68	6.65526
12.69	6.64572
12.7	6.63157
12.71	6.72072
12.72	6.70592
12.73	6.66151
12.74	6.67236
12.75	6.7125
12.76	6.68519
12.77	6.71644
12.78	6.70855
12.79	6.68618
12.8	6.66973
12.81	6.68026
12.82	6.63716
12.83	6.70953
12.84	6.6523
12.85	6.69638
12.86	6.65756
12.87	6.64802
12.88	6.7
12.89	6.70855
12.9	6.69934
12.91	6.63749
12.92	6.66249
12.93	6.63716
12.94	6.63716
12.95	6.66085
12.96	6.6773
12.97	6.63881
12.98	6.65986
12.99	6.67763
13	6.69276
13.01	6.67368
13.02	6.6148
13.03	6.66118
13.04	6.71217
13.05	6.64835
13.06	6.67467
13.07	6.71381
13.08	6.68684
13.09	6.70789
13.1	6.65756
13.11	6.69078
13.12	6.66874
13.13	6.66381
13.14	6.6523
13.15	6.65559
13.16	6.65986
13.17	6.64374
13.18	6.61183
13.19	6.65065
13.2	6.65164
13.21	6.7023
13.22	6.68585
13.23	6.67631
13.24	6.68124
13.25	6.65526
13.26	6.64374
13.27	6.67697
13.28	6.65263
13.29	6.65657
13.3	6.64605
13.31	6.67894
13.32	6.62039
13.33	6.65657
13.34	6.61315
13.35	6.66809
13.36	6.67335
13.37	6.64934
13.38	6.67598
13.39	6.66249
13.4	6.65361
13.41	6.66809
13.42	6.61776
13.43	6.66809
13.44	6.65888
13.45	6.65032
13.46	6.67927
13.47	6.65822
13.48	6.63848
13.49	6.63026
13.5	6.64045
13.51	6.64539
13.52	6.66743
13.53	6.65263
13.54	6.67335
13.55	6.62269
13.56	6.68585
13.57	6.65855
13.58	6.59966
13.59	6.62697
13.6	6.60526
13.61	6.59835
13.62	6.61118
13.63	6.61611
13.64	6.67368
13.65	6.61348
13.66	6.67335
13.67	6.66644
13.68	6.60032
13.69	6.62894
13.7	6.67039
13.71	6.64802
13.72	6.68552
13.73	6.69802
13.74	6.65493
13.75	6.61776
13.76	6.63355
13.77	6.65592
13.78	6.66743
13.79	6.61118
13.8	6.62894
13.81	6.67105
13.82	6.65263
13.83	6.63387
13.84	6.6921
13.85	6.65756
13.86	6.67434
13.87	6.64473
13.88	6.64966
13.89	6.68026
13.9	6.65526
13.91	6.63223
13.92	6.63486
13.93	6.64736
13.94	6.65065
13.95	6.59769
13.96	6.65098
13.97	6.62368
13.98	6.60756
13.99	6.64703
14	6.67039
14.01	6.59243
14.02	6.57795
14.03	6.63355
14.04	6.64572
14.05	6.64539
14.06	6.67828
14.07	6.64013
14.08	6.64605
14.09	6.64999
14.1	6.66743
14.11	6.62565
14.12	6.62302
14.13	6.65131
14.14	6.6546
14.15	6.64374
14.16	6.62664
14.17	6.62598
14.18	6.66315
14.19	6.61414
14.2	6.63289
14.21	6.62072
14.22	6.60032
14.23	6.63486
14.24	6.64999
14.25	6.68322
14.26	6.63618
14.27	6.65098
14.28	6.62006
14.29	6.54407
14.3	6.59703
14.31	6.62795
14.32	6.60098
14.33	6.62795
14.34	6.58091
14.35	6.62927
14.36	6.61282
14.37	6.64276
14.38	6.59769
14.39	6.55131
14.4	6.62795
14.41	6.61118
14.42	6.64539
14.43	6.64341
14.44	6.6342
14.45	6.62006
14.46	6.60394
14.47	6.67664
14.48	6.65756
14.49	6.64966
14.5	6.62039
14.51	6.65592
14.52	6.6467
14.53	6.63618
14.54	6.64835
14.55	6.63782
14.56	6.61809
14.57	6.5546
14.58	6.57532
14.59	6.58979
14.6	6.62697
14.61	6.60032
14.62	6.59243
14.63	6.60295
14.64	6.64309
14.65	6.60986
14.66	6.59012
14.67	6.66348
14.68	6.5967
14.69	6.56381
14.7	6.59078
14.71	6.63289
14.72	6.61512
14.73	6.61118
14.74	6.58683
14.75	6.64309
14.76	6.65263
14.77	6.58815
14.78	6.59736
14.79	6.59506
14.8	6.60032
14.81	6.57729
14.82	6.62401
14.83	6.59341
14.84	6.55953
14.85	6.57795
14.86	6.54539
14.87	6.55493
14.88	6.61183
14.89	6.6296
14.9	6.61743
14.91	6.61183
14.92	6.56118
14.93	6.59999
14.94	6.60032
14.95	6.63387
14.96	6.58124
14.97	6.53058
14.98	6.57598
14.99	6.5796
15	6.58782
15.01	6.65855
15.02	6.60591
15.03	6.60262
15.04	6.56677
15.05	6.56052
15.06	6.56578
15.07	6.56808
15.08	6.58091
15.09	6.56381
15.1	6.56414
15.11	6.57565
15.12	6.59605
15.13	6.56743
15.14	6.62697
15.15	6.62368
15.16	6.60855
15.17	6.62664
15.18	6.61019
15.19	6.60756
15.2	6.55427
15.21	6.56381
15.22	6.56479
15.23	6.6023
15.24	6.6398
15.25	6.61085
15.26	6.62861
15.27	6.59539
15.28	6.57598
15.29	6.58289
15.3	6.60164
15.31	6.60032
15.32	6.55361
15.33	6.57072
15.34	6.59868
15.35	6.58486
15.36	6.57433
15.37	6.57664
15.38	6.61809
15.39	6.58157
15.4	6.574
15.41	6.52532
15.42	6.5365
15.43	6.58289
15.44	6.62302
15.45	6.61315
15.46	6.58058
15.47	6.58881
15.48	6.60361
15.49	6.56677
15.5	6.62039
15.51	6.62368
15.52	6.59539
15.53	6.56479
15.54	6.5796
15.55	6.59703
15.56	6.57137
15.57	6.60822
15.58	6.60295
15.59	6.6546
15.6	6.61809
15.61	6.57795
15.62	6.55986
15.63	6.53124
15.64	6.54966
15.65	6.57039
15.66	6.62006
15.67	6.59506
15.68	6.56118
15.69	6.58979
15.7	6.53256
15.71	6.60098
15.72	6.59506
15.73	6.57302
15.74	6.60065
15.75	6.56907
15.76	6.56216
15.77	6.59407
15.78	6.57664
15.79	6.58453
15.8	6.62368
15.81	6.58618
15.82	6.5819
15.83	6.62828
15.84	6.5694
15.85	6.58223
15.86	6.55032
15.87	6.58881
15.88	6.574
15.89	6.5796
15.9	6.57762
15.91	6.50953
15.92	6.55723
15.93	6.5569
15.94	6.55789
15.95	6.54308
15.96	6.549
15.97	6.56479
15.98	6.56611
15.99	6.53848
16	6.60361
16.01	6.58354
16.02	6.58453
16.03	6.5467
16.04	6.51479
16.05	6.58552
16.06	6.59539
16.07	6.55328
16.08	6.61743
16.09	6.53387
16.1	6.55262
16.11	6.54012
16.12	6.58881
16.13	6.56052
16.14	6.56348
16.15	6.55624
16.16	6.5342
16.17	6.55558
16.18	6.55361
16.19	6.52532
16.2	6.57072
16.21	6.54802
16.22	6.57368
16.23	6.56381
16.24	6.52992
16.25	6.58749
16.26	6.59802
16.27	6.56479
16.28	6.55525
16.29	6.55065
16.3	6.55196
16.31	6.55756
16.32	6.61019
16.33	6.57894
16.34	6.57236
16.35	6.56677
16.36	6.58223
16.37	6.53486
16.38	6.52203
16.39	6.56052
16.4	6.5217
16.41	6.56447
16.42	6.52828
16.43	6.54539
16.44	6.52696
16.45	6.52927
16.46	6.53979
16.47	6.56183
16.48	6.55229
16.49	6.49999
16.5	6.57664
16.51	6.56611
16.52	6.49637
16.53	6.56183
16.54	6.56841
16.55	6.60262
16.56	6.54243
16.57	6.55591
16.58	6.54999
16.59	6.58157
16.6	6.58157
16.61	6.6092
16.62	6.58519
16.63	6.57861
16.64	6.60953
16.65	6.61052
16.66	6.54243
16.67	6.52795
16.68	6.49966
16.69	6.52992
16.7	6.54012
16.71	6.55822
16.72	6.55032
16.73	6.56611
16.74	6.56545
16.75	6.56282
16.76	6.5421
16.77	6.5615
16.78	6.55229
16.79	6.52269
16.8	6.53716
16.81	6.56907
16.82	6.56808
16.83	6.54736
16.84	6.52631
16.85	6.56381
16.86	6.50624
16.87	6.50986
16.88	6.52335
16.89	6.52433
16.9	6.4865
16.91	6.48913
16.92	6.49506
16.93	6.48815
16.94	6.49407
16.95	6.55328
16.96	6.57795
16.97	6.50427
16.98	6.52302
16.99	6.51052
17	6.53782
17.01	6.58354
17.02	6.59078
17.03	6.57269
17.04	6.50723
17.05	6.49867
17.06	6.56414
17.07	6.5671
17.08	6.54111
17.09	6.58058
17.1	6.56578
17.11	6.48321
17.12	6.50394
17.13	6.52598
17.14	6.52499
17.15	6.53091
17.16	6.52466
17.17	6.52367
17.18	6.5194
17.19	6.55953
17.2	6.53782
17.21	6.5421
17.22	6.56118
17.23	6.55591
17.24	6.56414
17.25	6.57006
17.26	6.55164
17.27	6.50591
17.28	6.55328
17.29	6.55229
17.3	6.54111
17.31	6.52729
17.32	6.55887
17.33	6.54933
17.34	6.51413
17.35	6.51677
17.36	6.54308
17.37	6.61282
17.38	6.58223
17.39	6.50723
17.4	6.50262
17.41	6.53025
17.42	6.57729
17.43	6.56973
17.44	6.53453
17.45	6.56907
17.46	6.54999
17.47	6.52532
17.48	6.5467
17.49	6.51545
17.5	6.5569
17.51	6.53848
17.52	6.51874
17.53	6.54736
17.54	6.5842
17.55	6.5569
17.56	6.5592
17.57	6.55822
17.58	6.54769
17.59	6.55229
17.6	6.50986
17.61	6.52466
17.62	6.5569
17.63	6.54243
17.64	6.53683
17.65	6.55558
17.66	6.59276
17.67	6.58782
17.68	6.60657
17.69	6.56414
17.7	6.56907
17.71	6.55032
17.72	6.56282
17.73	6.56414
17.74	6.52236
17.75	6.52203
17.76	6.58486
17.77	6.5444
17.78	6.5217
17.79	6.49144
17.8	6.5319
17.81	6.5717
17.82	6.53289
17.83	6.4967
17.84	6.53321
17.85	6.499
17.86	6.54539
17.87	6.58256
17.88	6.56085
17.89	6.56249
17.9	6.53716
17.91	6.51973
17.92	6.56085
17.93	6.55394
17.94	6.55361
17.95	6.58486
17.96	6.54341
17.97	6.55394
17.98	6.55196
17.99	6.57894
18	6.499
18.01	6.55624
18.02	6.56348
18.03	6.52992
18.04	6.50953
18.05	6.45262
18.06	6.474
18.07	6.52367
18.08	6.5342
18.09	6.52071
18.1	6.47071
18.11	6.52631
18.12	6.58947
18.13	6.55591
18.14	6.53519
18.15	6.50657
18.16	6.52894
18.17	6.5194
18.18	6.48058
18.19	6.52302
18.2	6.4819
18.21	6.49538
18.22	6.58354
18.23	6.52269
18.24	6.49999
18.25	6.49999
18.26	6.54802
18.27	6.52137
18.28	6.47433
18.29	6.5444
18.3	6.52236
18.31	6.4638
18.32	6.48486
18.33	6.49867
18.34	6.51085
18.35	6.48815
18.36	6.50821
18.37	6.4467
18.38	6.47565
18.39	6.50131
18.4	6.53256
18.41	6.57006
18.42	6.53585
18.43	6.51052
18.44	6.48486
18.45	6.57269
18.46	6.59506
18.47	6.54341
18.48	6.55295
18.49	6.48091
18.5	6.45525
18.51	6.52499
18.52	6.52335
18.53	6.52894
18.54	6.53289
18.55	6.46479
18.56	6.41709
18.57	6.43749
18.58	6.50953
18.59	6.45986
18.6	6.51183
18.61	6.5319
18.62	6.5194
18.63	6.47927
18.64	6.51216
18.65	6.52696
18.66	6.46446
18.67	6.5365
18.68	6.51611
18.69	6.47959
18.7	6.49637
18.71	6.50196
18.72	6.5365
18.73	6.57993
18.74	6.50558
18.75	6.50262
18.76	6.5046
18.77	6.52729
18.78	6.53848
18.79	6.48387
18.8	6.50986
18.81	6.48815
18.82	6.49933
18.83	6.49736
18.84	6.51381
18.85	6.52071
18.86	6.54604
18.87	6.46808
18.88	6.52269
18.89	6.54308
18.9	6.48157
18.91	6.49867
18.92	6.55723
18.93	6.50887
18.94	6.50953
18.95	6.52499
18.96	6.4967
18.97	6.52565
18.98	6.52269
18.99	6.52367
19	6.5546
19.01	6.5115
19.02	6.46775
19.03	6.48453
19.04	6.47762
19.05	6.51446
19.06	6.47894
19.07	6.45525
19.08	6.47433
19.09	6.5115
19.1	6.44736
19.11	6.44801
19.12	6.47269
19.13	6.50163
19.14	6.46545
19.15	6.50427
19.16	6.49308
19.17	6.52335
19.18	6.54637
19.19	6.48091
19.2	6.47565
19.21	6.49834
19.22	6.47137
19.23	6.474
19.24	6.46512
19.25	6.45723
19.26	6.50131
19.27	6.50624
19.28	6.46051
19.29	6.47663
19.3	6.43716
19.31	6.45459
19.32	6.47729
19.33	6.50098
19.34	6.46874
19.35	6.50756
19.36	6.48387
19.37	6.46742
19.38	6.48124
19.39	6.47861
19.4	6.53289
19.41	6.47236
19.42	6.4819
19.43	6.45821
19.44	6.48519
19.45	6.53617
19.46	6.51183
19.47	6.49012
19.48	6.54506
19.49	6.49341
19.5	6.46677
19.51	6.4763
19.52	6.51085
19.53	6.54933
19.54	6.49703
19.55	6.50953
19.56	6.50624
19.57	6.51052
19.58	6.50098
19.59	6.49769
19.6	6.51052
19.61	6.49637
19.62	6.46545
19.63	6.48091
19.64	6.50262
19.65	6.50723
19.66	6.47696
19.67	6.45558
19.68	6.4944
19.69	6.47729
19.7	6.41479
19.71	6.50196
19.72	6.53585
19.73	6.4944
19.74	6.47071
19.75	6.50032
19.76	6.50887
19.77	6.47795
19.78	6.47532
19.79	6.4467
19.8	6.47532
19.81	6.47696
19.82	6.46742
19.83	6.47071
19.84	6.48749
19.85	6.49604
19.86	6.42071
19.87	6.46775
19.88	6.51315
19.89	6.48881
19.9	6.47696
19.91	6.45788
19.92	6.48617
19.93	6.52532
19.94	6.47532
19.95	6.5069
19.96	6.50821
19.97	6.5217
19.98	6.52006
19.99	6.49209
20	6.52631
20.01	6.51249
20.02	6.50098
20.03	6.41972
20.04	6.47762
20.05	6.4865
20.06	6.48058
20.07	6.46808
20.08	6.49111
20.09	6.48749
20.1	6.45591
20.11	6.51512
20.12	6.51742
20.13	6.49177
20.14	6.47499
20.15	6.50032
20.16	6.48848
20.17	6.47696
20.18	6.52071
20.19	6.49538
20.2	6.51052
20.21	6.52598
20.22	6.47598
20.23	6.48617
20.24	6.51052
20.25	6.46512
20.26	6.50098
20.27	6.48157
20.28	6.49275
20.29	6.50196
20.3	6.52631
20.31	6.54539
20.32	6.49571
20.33	6.50953
20.34	6.49834
20.35	6.50295
20.36	6.50427
20.37	6.47927
20.38	6.41841
20.39	6.45426
20.4	6.47696
20.41	6.499
20.42	6.52992
20.43	6.48256
20.44	6.51611
20.45	6.48946
20.46	6.50492
20.47	6.4763
20.48	6.47071
20.49	6.44538
20.5	6.48091
20.51	6.4865
20.52	6.52598
20.53	6.47598
20.54	6.50854
20.55	6.49407
20.56	6.524
20.57	6.50657
20.58	6.49769
20.59	6.49045
20.6	6.47532
20.61	6.48519
20.62	6.45755
20.63	6.46282
20.64	6.44999
20.65	6.49407
20.66	6.46282
20.67	6.45065
20.68	6.46413
20.69	6.47861
20.7	6.47927
20.71	6.44769
20.72	6.47959
20.73	6.47828
20.74	6.49538
20.75	6.49374
20.76	6.48946
20.77	6.47696
20.78	6.48552
20.79	6.53979
20.8	6.5421
20.81	6.45953
20.82	6.45525
20.83	6.47532
20.84	6.53815
20.85	6.45755
20.86	6.45262
20.87	6.48025
20.88	6.47894
20.89	6.49012
20.9	6.44933
20.91	6.53025
20.92	6.46183
20.93	6.46808
20.94	6.48881
20.95	6.47137
20.96	6.50723
20.97	6.47499
20.98	6.40657
20.99	6.46282
21	6.49407
21.01	6.46413
21.02	6.41611
21.03	6.48749
21.04	6.47927
21.05	6.50196
21.06	6.49736
21.07	6.46282
21.08	6.50887
21.09	6.49802
21.1	6.47927
21.11	6.46216
21.12	6.43551
21.13	6.44966
21.14	6.45262
21.15	6.43716
21.16	6.48716
21.17	6.43387
21.18	6.47137
21.19	6.45723
21.2	6.46282
21.21	6.45887
21.22	6.44176
21.23	6.47499
21.24	6.49374
21.25	6.44078
21.26	6.44209
21.27	6.44374
21.28	6.41512
21.29	6.48124
21.3	6.48453
21.31	6.45361
21.32	6.45065
21.33	6.43749
21.34	6.46117
21.35	6.4569
21.36	6.45459
21.37	6.46479
21.38	6.44012
21.39	6.46578
21.4	6.44571
21.41	6.49308
21.42	6.47203
21.43	6.50262
21.44	6.47828
21.45	6.44966
21.46	6.43321
21.47	6.46677
21.48	6.41249
21.49	6.38617
21.5	6.4592
21.51	6.47861
21.52	6.46907
21.53	6.49604
21.54	6.50821
21.55	6.44571
21.56	6.49966
21.57	6.48815
21.58	6.45394
21.59	6.48486
21.6	6.4694
21.61	6.47433
21.62	6.44538
21.63	6.49867
21.64	6.48091
21.65	6.46019
21.66	6.49045
21.67	6.48486
21.68	6.47894
21.69	6.46973
21.7	6.40492
21.71	6.41676
21.72	6.47532
21.73	6.46742
21.74	6.4944
21.75	6.46874
21.76	6.46117
21.77	6.47663
21.78	6.49637
21.79	6.48157
21.8	6.49736
21.81	6.50657
21.82	6.49111
21.83	6.47334
21.84	6.49144
21.85	6.47466
21.86	6.50788
21.87	6.46479
21.88	6.47071
21.89	6.49078
21.9	6.46611
21.91	6.47992
21.92	6.47663
21.93	6.44111
21.94	6.44801
21.95	6.42005
21.96	6.42301
21.97	6.47302
21.98	6.45262
21.99	6.49374
22	6.49341
22.01	6.45426
22.02	6.45196
22.03	6.46512
22.04	6.43157
22.05	6.50624
22.06	6.50887
22.07	6.49999
22.08	6.40361
22.09	6.45295
22.1	6.43222
22.11	6.43354
22.12	6.48058
22.13	6.48157
22.14	6.40624
22.15	6.45657
22.16	6.47203
22.17	6.45723
22.18	6.43847
22.19	6.4444
22.2	6.42762
22.21	6.4615
22.22	6.45426
22.23	6.45788
22.24	6.40558
22.25	6.44407
22.26	6.46084
22.27	6.47532
22.28	6.46249
22.29	6.46907
22.3	6.48946
22.31	6.46019
22.32	6.42334
22.33	6.4717
22.34	6.44538
22.35	6.46841
22.36	6.46315
22.37	6.49473
22.38	6.44308
22.39	6.46874
22.4	6.45459
22.41	6.45558
22.42	6.44111
22.43	6.46084
22.44	6.49177
22.45	6.52532
22.46	6.53223
22.47	6.4763
22.48	6.46742
22.49	6.40657
22.5	6.44966
22.51	6.49538
22.52	6.45723
22.53	6.48453
22.54	6.47104
22.55	6.43584
22.56	6.43815
22.57	6.47038
22.58	6.46677
22.59	6.47236
22.6	6.47334
22.61	6.41413
22.62	6.51216
22.63	6.42663
22.64	6.4217
22.65	6.46677
22.66	6.41841
22.67	6.38157
22.68	6.41742
22.69	6.424
22.7	6.4194
22.71	6.36907
22.72	6.449
22.73	6.46446
22.74	6.47302
22.75	6.42828
22.76	6.45229
22.77	6.4342
22.78	6.46742
22.79	6.44012
22.8	6.41051
22.81	6.43617
22.82	6.44999
22.83	6.42795
22.84	6.37992
22.85	6.46611
22.86	6.45492
22.87	6.41512
22.88	6.47565
22.89	6.49209
22.9	6.47828
22.91	6.44078
22.92	6.44407
22.93	6.45788
22.94	6.46709
22.95	6.4819
22.96	6.49341
22.97	6.47005
22.98	6.44801
22.99	6.44703
23	6.46117
23.01	6.47367
23.02	6.48025
23.03	6.45262
23.04	6.44769
23.05	6.47005
23.06	6.47203
23.07	6.47762
23.08	6.48979
23.09	6.47992
23.1	6.46183
23.11	6.45229
23.12	6.41018
23.13	6.44933
23.14	6.48683
23.15	6.46117
23.16	6.48913
23.17	6.46907
23.18	6.42203
23.19	6.50788
23.2	6.50887
23.21	6.43551
23.22	6.43782
23.23	6.44801
23.24	6.41446
23.25	6.44078
23.26	6.44769
23.27	6.38946
23.28	6.45032
23.29	6.42203
23.3	6.38354
23.31	6.3967
23.32	6.45229
23.33	6.45196
23.34	6.4763
23.35	6.44637
23.36	6.43551
23.37	6.42894
23.38	6.4467
23.39	6.42071
23.4	6.45953
23.41	6.42565
23.42	6.42071
23.43	6.4842
23.44	6.43519
23.45	6.4967
23.46	6.48749
23.47	6.46775
23.48	6.48749
23.49	6.43453
23.5	6.40295
23.51	6.43617
23.52	6.46677
23.53	6.43749
23.54	6.45591
23.55	6.48354
23.56	6.48321
23.57	6.44407
23.58	6.44045
23.59	6.45755
23.6	6.50361
23.61	6.47466
23.62	6.47762
23.63	6.45295
23.64	6.47828
23.65	6.48782
23.66	6.4069
23.67	6.41479
23.68	6.48058
23.69	6.49275
23.7	6.42894
23.71	6.46512
23.72	6.47992
23.73	6.45196
23.74	6.47762
23.75	6.43913
23.76	6.46512
23.77	6.42005
23.78	6.43387
23.79	6.48815
23.8	6.4717
23.81	6.46874
23.82	6.43913
23.83	6.44505
23.84	6.45394
23.85	6.41874
23.86	6.40591
23.87	6.43716
23.88	6.47795
23.89	6.43847
23.9	6.43387
23.91	6.39045
23.92	6.40426
23.93	6.44308
23.94	6.4388
23.95	6.44242
23.96	6.41216
23.97	6.4444
23.98	6.45262
23.99	6.44275
24	6.46709
24.01	6.43124
24.02	6.47729
24.03	6.47302
24.04	6.46709
24.05	6.42236
24.06	6.40854
24.07	6.40887
24.08	6.4842
24.09	6.43913
24.1	6.46874
24.11	6.42268
24.12	6.43946
24.13	6.40854
24.14	6.39407
24.15	6.41643
24.16	6.44867
24.17	6.41808
24.18	6.38551
24.19	6.46282
24.2	6.46249
24.21	6.42894
24.22	6.4069
24.23	6.40262
24.24	6.46183
24.25	6.4365
24.26	6.449
24.27	6.46315
24.28	6.49966
24.29	6.46051
24.3	6.46019
24.31	6.40591
24.32	6.41808
24.33	6.42268
24.34	6.45196
24.35	6.44176
24.36	6.44078
24.37	6.47762
24.38	6.48584
24.39	6.48288
24.4	6.45953
24.41	6.45426
24.42	6.44867
24.43	6.45361
24.44	6.46479
24.45	6.46183
24.46	6.46973
24.47	6.4069
24.48	6.4444
24.49	6.45624
24.5	6.43354
24.51	6.47663
24.52	6.42071
24.53	6.45065
24.54	6.3888
24.55	6.39604
24.56	6.40426
24.57	6.4342
24.58	6.45755
24.59	6.45591
24.6	6.45887
24.61	6.45032
24.62	6.42663
24.63	6.40657
24.64	6.3865
24.65	6.43913
24.66	6.38946
24.67	6.43946
24.68	6.50394
24.69	6.41446
24.7	6.44604
24.71	6.46742
24.72	6.45558
24.73	6.44834
24.74	6.45723
24.75	6.42828
24.76	6.44176
24.77	6.47532
24.78	6.41742
24.79	6.4069
24.8	6.44834
24.81	6.43453
24.82	6.41643
24.83	6.51183
24.84	6.49966
24.85	6.44834
24.86	6.44144
24.87	6.42729
24.88	6.4263
24.89	6.41282
24.9	6.43025
24.91	6.474
24.92	6.42729
24.93	6.45624
24.94	6.45426
24.95	6.42433
24.96	6.37926
24.97	6.41051
24.98	6.48913
24.99	6.40722
25	6.41742
25.01	6.46084
25.02	6.43453
25.03	6.46874
25.04	6.45788
25.05	6.4694
25.06	6.40953
25.07	6.39374
25.08	6.41018
25.09	6.4138
25.1	6.45953
25.11	6.4467
25.12	6.45723
25.13	6.43815
25.14	6.43354
25.15	6.43749
25.16	6.41972
25.17	6.46512
25.18	6.48124
25.19	6.46315
25.2	6.44407
25.21	6.43124
25.22	6.41742
25.23	6.48256
25.24	6.4263
25.25	6.43124
25.26	6.43946
25.27	6.46841
25.28	6.39341
25.29	6.43749
25.3	6.45624
25.31	6.41512
25.32	6.41446
25.33	6.47334
25.34	6.46709
25.35	6.3865
25.36	6.42663
25.37	6.4444
25.38	6.44736
25.39	6.46742
25.4	6.4615
25.41	6.45657
25.42	6.41841
25.43	6.47236
25.44	6.45032
25.45	6.41907
25.46	6.43453
25.47	6.42301
25.48	6.43716
25.49	6.41479
25.5	6.424
25.51	6.4513
25.52	6.45657
25.53	6.43847
25.54	6.41808
25.55	6.42894
25.56	6.42959
25.57	6.43979
25.58	6.45065
25.59	6.4842
25.6	6.47598
25.61	6.46282
25.62	6.43716
25.63	6.45459
25.64	6.47005
25.65	6.42894
25.66	6.42565
25.67	6.44012
25.68	6.4865
25.69	6.45328
25.7	6.42499
25.71	6.44473
25.72	6.46907
25.73	6.41972
25.74	6.48321
25.75	6.42926
25.76	6.45525
25.77	6.41775
25.78	6.40525
25.79	6.42696
25.8	6.41808
25.81	6.45854
25.82	6.46348
25.83	6.43716
25.84	6.44407
25.85	6.45459
25.86	6.47565
25.87	6.49867
25.88	6.43782
25.89	6.44407
25.9	6.46446
25.91	6.399
25.92	6.4194
25.93	6.40492
25.94	6.44407
25.95	6.42959
25.96	6.49834
25.97	6.47038
25.98	6.399
25.99	6.43255
26	6.43486
26.01	6.44966
26.02	6.38913
26.03	6.35953
26.04	6.41611
26.05	6.44308
26.06	6.45558
26.07	6.45755
26.08	6.43222
26.09	6.41578
26.1	6.42038
26.11	6.39439
26.12	6.41578
26.13	6.43222
26.14	6.42663
26.15	6.4388
26.16	6.40854
26.17	6.40953
26.18	6.42532
26.19	6.44111
26.2	6.42696
26.21	6.50262
26.22	6.44407
26.23	6.46019
26.24	6.42367
26.25	6.42663
26.26	6.39407
26.27	6.42071
26.28	6.42071
26.29	6.47565
26.3	6.4592
26.31	6.43584
26.32	6.48025
26.33	6.47894
26.34	6.41643
26.35	6.44308
26.36	6.40426
26.37	6.41216
26.38	6.40887
26.39	6.43749
26.4	6.42795
26.41	6.4194
26.42	6.45459
26.43	6.42959
26.44	6.39538
26.45	6.44341
26.46	6.45854
26.47	6.40492
26.48	6.48486
26.49	6.4717
26.5	6.46249
26.51	6.44999
26.52	6.42367
26.53	6.45986
26.54	6.40393
26.55	6.40229
26.56	6.46315
26.57	6.46512
26.58	6.4569
26.59	6.42104
26.6	6.39867
26.61	6.40788
26.62	6.40887
26.63	6.44308
26.64	6.43749
26.65	6.46742
26.66	6.47005
26.67	6.42367
26.68	6.39242
26.69	6.40755
26.7	6.40525
26.71	6.42762
26.72	6.44407
26.73	6.39538
26.74	6.424
26.75	6.4263
26.76	6.44571
26.77	6.40295
26.78	6.41841
26.79	6.40295
26.8	6.38683
26.81	6.3967
26.82	6.46512
26.83	6.41611
26.84	6.42367
26.85	6.4342
26.86	6.42926
26.87	6.43222
26.88	6.35591
26.89	6.39407
26.9	6.40032
26.91	6.43025
26.92	6.40624
26.93	6.38979
26.94	6.40986
26.95	6.32268
26.96	6.3365
26.97	6.4388
26.98	6.4263
26.99	6.42696
27	6.36972
27.01	6.36413
27.02	6.42236
27.03	6.39407
27.04	6.4263
27.05	6.40459
27.06	6.39966
27.07	6.40229
27.08	6.39768
27.09	6.43979
27.1	6.41117
27.11	6.38749
27.12	6.39242
27.13	6.42367
27.14	6.41742
27.15	6.48782
27.16	6.47334
27.17	6.42005
27.18	6.44045
27.19	6.49012
27.2	6.4842
27.21	6.46216
27.22	6.47334
27.23	6.44769
27.24	6.40755
27.25	6.39045
27.26	6.43617
27.27	6.40525
27.28	6.44604
27.29	6.41315
27.3	6.44933
27.31	6.42861
27.32	6.45821
27.33	6.41972
27.34	6.42565
27.35	6.36643
27.36	6.39472
27.37	6.46216
27.38	6.50196
27.39	6.47071
27.4	6.44867
27.41	6.39045
27.42	6.38847
27.43	6.4013
27.44	6.38979
27.45	6.37334
27.46	6.39867
27.47	6.43519
27.48	6.41315
27.49	6.39472
27.5	6.43387
27.51	6.40657
27.52	6.39472
27.53	6.44308
27.54	6.47894
27.55	6.46019
27.56	6.45426
27.57	6.42861
27.58	6.47071
27.59	6.40624
27.6	6.39768
27.61	6.45459
27.62	6.43321
27.63	6.44045
27.64	6.44374
27.65	6.45624
27.66	6.4444
27.67	6.46841
27.68	6.42565
27.69	6.42828
27.7	6.4069
27.71	6.45262
27.72	6.4592
27.73	6.38124
27.74	6.44209
27.75	6.4467
27.76	6.43782
27.77	6.53157
27.78	6.47137
27.79	6.48749
27.8	6.45459
27.81	6.45229
27.82	6.4069
27.83	6.44604
27.84	6.40262
27.85	6.39078
27.86	6.46216
27.87	6.42038
27.88	6.43124
27.89	6.45986
27.9	6.45723
27.91	6.4638
27.92	6.41315
27.93	6.38453
27.94	6.47038
27.95	6.42301
27.96	6.44078
27.97	6.39637
27.98	6.34538
27.99	6.39703
28	6.37795
28.01	6.43058
28.02	6.42038
28.03	6.46644
28.04	6.42334
28.05	6.41018
28.06	6.41775
28.07	6.41742
28.08	6.40953
28.09	6.45723
28.1	6.39999
28.11	6.42828
28.12	6.43025
28.13	6.43058
28.14	6.37367
28.15	6.43815
28.16	6.43321
28.17	6.3717
28.18	6.38453
28.19	6.40229
28.2	6.44571
28.21	6.38124
28.22	6.4194
28.23	6.42795
28.24	6.41742
28.25	6.40295
28.26	6.40722
28.27	6.40657
28.28	6.4069
28.29	6.42334
28.3	6.45986
28.31	6.42005
28.32	6.32531
28.33	6.34933
28.34	6.40328
28.35	6.43683
28.36	6.43222
28.37	6.40887
28.38	6.40426
28.39	6.43584
28.4	6.40032
28.41	6.39538
28.42	6.41315
28.43	6.40492
28.44	6.44604
28.45	6.43321
28.46	6.44571
28.47	6.39472
28.48	6.37301
28.49	6.40196
28.5	6.40492
28.51	6.37597
28.52	6.42367
28.53	6.43321
28.54	6.37235
28.55	6.39736
28.56	6.42795
28.57	6.4263
28.58	6.42696
28.59	6.4444
28.6	6.41578
28.61	6.4319
28.62	6.39999
28.63	6.45065
28.64	6.39505
28.65	6.42926
28.66	6.43749
28.67	6.42597
28.68	6.4319
28.69	6.39341
28.7	6.38946
28.71	6.4319
28.72	6.46084
28.73	6.36874
28.74	6.40032
28.75	6.41841
28.76	6.39999
28.77	6.42203
28.78	6.38584
28.79	6.42334
28.8	6.39834
28.81	6.45098
28.82	6.43782
28.83	6.47598
28.84	6.43683
28.85	6.40262
28.86	6.41611
28.87	6.42959
28.88	6.41841
28.89	6.38847
28.9	6.36479
28.91	6.3638
28.92	6.40097
28.93	6.40755
28.94	6.41479
28.95	6.41907
28.96	6.44078
28.97	6.424
28.98	6.42071
28.99	6.37597
29	6.42104
29.01	6.42104
29.02	6.44801
29.03	6.4319
29.04	6.36347
29.05	6.37203
29.06	6.40459
29.07	6.43979
29.08	6.39768
29.09	6.41282
29.1	6.38814
29.11	6.42005
29.12	6.38025
29.13	6.38189
29.14	6.40525
29.15	6.44341
29.16	6.44736
29.17	6.46709
29.18	6.41676
29.19	6.45196
29.2	6.46644
29.21	6.42762
29.22	6.43913
29.23	6.38847
29.24	6.4069
29.25	6.42236
29.26	6.4092
29.27	6.39012
29.28	6.41611
29.29	6.43683
29.3	6.44242
29.31	6.39209
29.32	6.43847
29.33	6.43716
29.34	6.4138
29.35	6.41775
29.36	6.40854
29.37	6.39341
29.38	6.40657
29.39	6.43946
29.4	6.44867
29.41	6.44275
29.42	6.4115
29.43	6.46019
29.44	6.40032
29.45	6.42137
29.46	6.42466
29.47	6.35689
29.48	6.37893
29.49	6.46545
29.5	6.41512
29.51	6.39867
29.52	6.44966
29.53	6.40591
29.54	6.44407
29.55	6.35689
29.56	6.41051
29.57	6.44374
29.58	6.45459
29.59	6.46545
29.6	6.41874
29.61	6.40558
29.62	6.38749
29.63	6.46315
29.64	6.42071
29.65	6.4115
29.66	6.40821
29.67	6.41643
29.68	6.38913
29.69	6.43551
29.7	6.38025
29.71	6.34702
29.72	6.39505
29.73	6.374
29.74	6.39472
29.75	6.41183
29.76	6.44505
29.77	6.41282
29.78	6.42334
29.79	6.42466
29.8	6.40229
29.81	6.35459
29.82	6.39703
29.83	6.42499
29.84	6.42696
29.85	6.42137
29.86	6.44144
29.87	6.42861
29.88	6.42301
29.89	6.42926
29.9	6.43519
29.91	6.40459
29.92	6.41413
29.93	6.43157
29.94	6.35854
29.95	6.36479
29.96	6.41907
29.97	6.45229
29.98	6.43091
29.99	6.43453
30	6.46545
30.01	6.39736
30.02	6.38255
30.03	6.40624
30.04	6.40821
30.05	6.4138
30.06	6.39045
30.07	6.41742
30.08	6.37268
30.09	6.45986
30.1	6.42992
30.11	6.40525
30.12	6.40558
30.13	6.4388
30.14	6.37038
30.15	6.3888
30.16	6.45788
30.17	6.39176
30.18	6.37532
30.19	6.35426
30.2	6.39472
30.21	6.42762
30.22	6.41446
30.23	6.36939
30.24	6.3536
30.25	6.34308
30.26	6.39045
30.27	6.39933
30.28	6.43387
30.29	6.3865
30.3	6.36545
30.31	6.40064
30.32	6.41051
30.33	6.35722
30.34	6.37268
30.35	6.34867
30.36	6.38814
30.37	6.39834
30.38	6.39834
30.39	6.41249
30.4	6.40361
30.41	6.43387
30.42	6.35459
30.43	6.36479
30.44	6.40558
30.45	6.40196
30.46	6.36413
30.47	6.4013
30.48	6.42499
30.49	6.42071
30.5	6.42795
30.51	6.41216
30.52	6.41479
30.53	6.41347
30.54	6.40558
30.55	6.43321
30.56	6.39637
30.57	6.37795
30.58	6.39703
30.59	6.48716
30.6	6.37926
30.61	6.3786
30.62	6.44966
30.63	6.36907
30.64	6.39999
30.65	6.40459
30.66	6.41841
30.67	6.36841
30.68	6.41018
30.69	6.38485
30.7	6.41479
30.71	6.41347
30.72	6.42268
30.73	6.38485
30.74	6.41216
30.75	6.44703
30.76	6.41479
30.77	6.4194
30.78	6.43913
30.79	6.42433
30.8	6.41117
30.81	6.38847
30.82	6.42367
30.83	6.38913
30.84	6.37959
30.85	6.38189
30.86	6.39867
30.87	6.44176
30.88	6.38716
30.89	6.39045
30.9	6.42597
30.91	6.41446
30.92	6.3888
30.93	6.40361
30.94	6.41413
30.95	6.42038
30.96	6.4138
30.97	6.42795
30.98	6.41347
30.99	6.36907
31	6.42203
31.01	6.44637
31.02	6.44538
31.03	6.41775
31.04	6.42236
31.05	6.43058
31.06	6.4342
31.07	6.40196
31.08	6.42071
31.09	6.46446
31.1	6.37334
31.11	6.36545
31.12	6.39999
31.13	6.3786
31.14	6.3888
31.15	6.41775
31.16	6.40788
31.17	6.39242
31.18	6.39176
31.19	6.39571
31.2	6.42301
31.21	6.399
31.22	6.3661
31.23	6.42005
31.24	6.41972
31.25	6.41709
31.26	6.40624
31.27	6.38946
31.28	6.41216
31.29	6.41249
31.3	6.37235
31.31	6.35196
31.32	6.3615
31.33	6.38683
31.34	6.44078
31.35	6.44341
31.36	6.42861
31.37	6.37729
31.38	6.39637
31.39	6.40722
31.4	6.4263
31.41	6.3865
31.42	6.3786
31.43	6.37071
31.44	6.39111
31.45	6.34604
31.46	6.38354
31.47	6.4115
31.48	6.37301
31.49	6.38124
31.5	6.34735
31.51	6.37663
31.52	6.35262
31.53	6.41545
31.54	6.38485
31.55	6.40393
31.56	6.44242
31.57	6.44769
31.58	6.40525
31.59	6.43815
31.6	6.38551
31.61	6.39143
31.62	6.41512
31.63	6.42433
31.64	6.36051
31.65	6.3661
31.66	6.34176
31.67	6.39801
31.68	6.43321
31.69	6.35229
31.7	6.41282
31.71	6.37367
31.72	6.35031
31.73	6.40953
31.74	6.4217
31.75	6.38157
31.76	6.38387
31.77	6.41249
31.78	6.42236
31.79	6.39012
31.8	6.36183
31.81	6.39111
31.82	6.39078
31.83	6.4444
31.84	6.43091
31.85	6.44176
31.86	6.40887
31.87	6.40229
31.88	6.40064
31.89	6.43716
31.9	6.41874
31.91	6.39176
31.92	6.42959
31.93	6.38913
31.94	6.39604
31.95	6.36841
31.96	6.3365
31.97	6.38091
31.98	6.33979
31.99	6.33354
32	6.37893
32.01	6.40492
32.02	6.45558
32.03	6.41841
32.04	6.43913
32.05	6.41446
32.06	6.42894
32.07	6.4217
32.08	6.38485
32.09	6.35755
32.1	6.38979
32.11	6.42795
32.12	6.39999
32.13	6.35887
32.14	6.40788
32.15	6.38321
32.16	6.37071
32.17	6.38058
32.18	6.39867
32.19	6.38518
32.2	6.37762
32.21	6.4115
32.22	6.45591
32.23	6.4592
32.24	6.42236
32.25	6.38058
32.26	6.38749
32.27	6.45426
32.28	6.3967
32.29	6.47499
32.3	6.42301
32.31	6.374
32.32	6.36249
32.33	6.39472
32.34	6.42104
32.35	6.43946
32.36	6.37268
32.37	6.38288
32.38	6.36907
32.39	6.41907
32.4	6.43946
32.41	6.40953
32.42	6.37433
32.43	6.38551
32.44	6.37893
32.45	6.38025
32.46	6.40821
32.47	6.32959
32.48	6.40295
32.49	6.38617
32.5	6.42466
32.51	6.40163
32.52	6.41742
32.53	6.37992
32.54	6.39242
32.55	6.39966
32.56	6.34439
32.57	6.36249
32.58	6.39111
32.59	6.41841
32.6	6.38946
32.61	6.4092
32.62	6.43453
32.63	6.40459
32.64	6.36907
32.65	6.41479
32.66	6.37466
32.67	6.43124
32.68	6.41018
32.69	6.41413
32.7	6.36183
32.71	6.40229
32.72	6.40591
32.73	6.3865
32.74	6.39571
32.75	6.38716
32.76	6.37762
32.77	6.39933
32.78	6.35953
32.79	6.37268
32.8	6.39637
32.81	6.41643
32.82	6.40624
32.83	6.42894
32.84	6.4013
32.85	6.3717
32.86	6.41117
32.87	6.45196
32.88	6.38847
32.89	6.41315
32.9	6.39966
32.91	6.41282
32.92	6.37893
32.93	6.39834
32.94	6.39867
32.95	6.40459
32.96	6.37663
32.97	6.42104
32.98	6.40328
32.99	6.39999
33	6.37038
33.01	6.40229
33.02	6.37203
33.03	6.36709
33.04	6.399
33.05	6.38485
33.06	6.44538
33.07	6.45558
33.08	6.44012
33.09	6.42268
33.1	6.4092
33.11	6.38847
33.12	6.41315
33.13	6.41051
33.14	6.45394
33.15	6.38321
33.16	6.43519
33.17	6.41742
33.18	6.40097
33.19	6.39275
33.2	6.44242
33.21	6.41709
33.22	6.41183
33.23	6.40624
33.24	6.40657
33.25	6.38091
33.26	6.34275
33.27	6.36808
33.28	6.39867
33.29	6.35492
33.3	6.34538
33.31	6.40196
33.32	6.40459
33.33	6.36874
33.34	6.41282
33.35	6.42894
33.36	6.46315
33.37	6.40196
33.38	6.39078
33.39	6.38913
33.4	6.42729
33.41	6.42861
33.42	6.45262
33.43	6.41775
33.44	6.4319
33.45	6.44176
33.46	6.40558
33.47	6.38387
33.48	6.41018
33.49	6.36709
33.5	6.38453
33.51	6.38979
33.52	6.4319
33.53	6.39275
33.54	6.424
33.55	6.38847
33.56	6.41643
33.57	6.4092
33.58	6.45295
33.59	6.39374
33.6	6.35328
33.61	6.41282
33.62	6.3786
33.63	6.38091
33.64	6.4115
33.65	6.38551
33.66	6.42926
33.67	6.45723
33.68	6.44637
33.69	6.38157
33.7	6.39407
33.71	6.41545
33.72	6.42005
33.73	6.45032
33.74	6.35196
33.75	6.37828
33.76	6.4069
33.77	6.36446
33.78	6.37992
33.79	6.39111
33.8	6.41742
33.81	6.39374
33.82	6.37795
33.83	6.31512
33.84	6.38453
33.85	6.40262
33.86	6.37532
33.87	6.38288
33.88	6.37597
33.89	6.40788
33.9	6.40887
33.91	6.4444
33.92	6.4217
33.93	6.41282
33.94	6.37795
33.95	6.38946
33.96	6.36413
33.97	6.34637
33.98	6.3615
33.99	6.42894
34	6.36742
34.01	6.42959
34.02	6.40525
34.03	6.41578
34.04	6.38782
34.05	6.39867
34.06	6.37729
34.07	6.36249
34.08	6.3842
34.09	6.36018
34.1	6.40755
34.11	6.39736
34.12	6.41545
34.13	6.38551
34.14	6.39308
34.15	6.40262
34.16	6.33518
34.17	6.40525
34.18	6.42861
34.19	6.40196
34.2	6.42334
34.21	6.42203
34.22	6.41084
34.23	6.3717
34.24	6.39966
34.25	6.38058
34.26	6.38387
34.27	6.44078
34.28	6.39045
34.29	6.41709
34.3	6.38847
34.31	6.47269
34.32	6.43551
34.33	6.40426
34.34	6.4115
34.35	6.44834
34.36	6.42729
34.37	6.3786
34.38	6.42005
34.39	6.40953
34.4	6.41512
34.41	6.37104
34.42	6.4013
34.43	6.42696
34.44	6.40722
34.45	6.42268
34.46	6.40459
34.47	6.43288
34.48	6.4013
34.49	6.38288
34.5	6.41446
34.51	6.46051
34.52	6.40953
34.53	6.36643
34.54	6.36281
34.55	6.37268
34.56	6.38913
34.57	6.45591
34.58	6.40953
34.59	6.37926
34.6	6.3865
34.61	6.37301
34.62	6.44374
34.63	6.39505
34.64	6.35854
34.65	6.38124
34.66	6.38913
34.67	6.37959
34.68	6.31545
34.69	6.34867
34.7	6.40591
34.71	6.40426
34.72	6.36643
34.73	6.38387
34.74	6.41907
34.75	6.39571
34.76	6.38683
34.77	6.39604
34.78	6.35887
34.79	6.36874
34.8	6.40196
34.81	6.39999
34.82	6.35295
34.83	6.34867
34.84	6.35821
34.85	6.39012
34.86	6.35656
34.87	6.39571
34.88	6.39111
34.89	6.36347
34.9	6.3592
34.91	6.39407
34.92	6.34045
34.93	6.42894
34.94	6.40262
34.95	6.34867
34.96	6.37334
34.97	6.37038
34.98	6.37926
34.99	6.43124
35	6.41479
35.01	6.38749
35.02	6.40426
35.03	6.41643
35.04	6.39078
35.05	6.35459
35.06	6.38551
35.07	6.40229
35.08	6.39505
35.09	6.38354
35.1	6.35393
35.11	6.44999
35.12	6.40393
35.13	6.32301
35.14	6.38288
35.15	6.39703
35.16	6.38485
35.17	6.39012
35.18	6.40196
35.19	6.39275
35.2	6.399
35.21	6.39308
35.22	6.37071
35.23	6.40295
35.24	6.33551
35.25	6.44801
35.26	6.3865
35.27	6.39703
35.28	6.44078
35.29	6.41578
35.3	6.43946
35.31	6.42729
35.32	6.40459
35.33	6.44933
35.34	6.40328
35.35	6.41907
35.36	6.39242
35.37	6.41841
35.38	6.39966
35.39	6.38683
35.4	6.38387
35.41	6.38453
35.42	6.42236
35.43	6.36446
35.44	6.39439
35.45	6.36183
35.46	6.35558
35.47	6.374
35.48	6.37795
35.49	6.34702
35.5	6.44078
35.51	6.42466
35.52	6.4138
35.53	6.42236
35.54	6.45098
35.55	6.35295
35.56	6.38814
35.57	6.39275
35.58	6.35229
35.59	6.37499
35.6	6.37137
35.61	6.37564
35.62	6.36742
35.63	6.35821
35.64	6.39439
35.65	6.44176
35.66	6.4013
35.67	6.36874
35.68	6.35854
35.69	6.39867
35.7	6.35985
35.71	6.37926
35.72	6.41643
35.73	6.43749
35.74	6.39176
35.75	6.37005
35.76	6.33222
35.77	6.374
35.78	6.40459
35.79	6.4194
35.8	6.41874
35.81	6.39966
35.82	6.38025
35.83	6.36084
35.84	6.39999
35.85	6.46512
35.86	6.4194
35.87	6.41084
35.88	6.4013
35.89	6.374
35.9	6.4263
35.91	6.39143
35.92	6.37038
35.93	6.33814
35.94	6.399
35.95	6.40393
35.96	6.39999
35.97	6.35985
35.98	6.36216
35.99	6.3615
36	6.34768
36.01	6.39505
36.02	6.3615
36.03	6.37992
36.04	6.37959
36.05	6.34801
36.06	6.33255
36.07	6.39143
36.08	6.38025
36.09	6.3638
36.1	6.38288
36.11	6.37992
36.12	6.41117
36.13	6.37466
36.14	6.40229
36.15	6.44045
36.16	6.39637
36.17	6.40755
36.18	6.38387
36.19	6.3865
36.2	6.42597
36.21	6.43453
36.22	6.41446
36.23	6.36413
36.24	6.35887
36.25	6.39341
36.26	6.35788
36.27	6.37696
36.28	6.38321
36.29	6.37926
36.3	6.38354
36.31	6.40229
36.32	6.36939
36.33	6.40229
36.34	6.43782
36.35	6.38518
36.36	6.35426
36.37	6.39374
36.38	6.37104
36.39	6.40196
36.4	6.3888
36.41	6.39538
36.42	6.37795
36.43	6.37992
36.44	6.38913
36.45	6.37038
36.46	6.35163
36.47	6.39966
36.48	6.34538
36.49	6.38058
36.5	6.40525
36.51	6.399
36.52	6.41249
36.53	6.31117
36.54	6.35755
36.55	6.41676
36.56	6.40097
36.57	6.35985
36.58	6.36808
36.59	6.3842
36.6	6.39505
36.61	6.39637
36.62	6.36413
36.63	6.38255
36.64	6.36545
36.65	6.39275
36.66	6.38584
36.67	6.39703
36.68	6.40097
36.69	6.42005
36.7	6.40755
36.71	6.34801
36.72	6.35262
36.73	6.40032
36.74	6.36578
36.75	6.39472
36.76	6.36183
36.77	6.36446
36.78	6.3661
36.79	6.3592
36.8	6.40558
36.81	6.39407
36.82	6.40953
36.83	6.41676
36.84	6.40492
36.85	6.35656
36.86	6.38814
36.87	6.39111
36.88	6.39801
36.89	6.44078
36.9	6.42137
36.91	6.35656
36.92	6.35985
36.93	6.37696
36.94	6.38518
36.95	6.35624
36.96	6.38058
36.97	6.36051
36.98	6.39505
36.99	6.36808
37	6.39801
37.01	6.39538
37.02	6.37499
37.03	6.41315
37.04	6.39834
37.05	6.37729
37.06	6.32827
37.07	6.40032
37.08	6.33946
37.09	6.33913
37.1	6.36545
37.11	6.37301
37.12	6.37926
37.13	6.44012
37.14	6.3638
37.15	6.33222
37.16	6.43157
37.17	6.40986
37.18	6.37564
37.19	6.37499
37.2	6.40393
37.21	6.399
37.22	6.37959
37.23	6.37564
37.24	6.38782
37.25	6.374
37.26	6.41315
37.27	6.36479
37.28	6.37696
37.29	6.3842
37.3	6.36281
37.31	6.33124
37.32	6.4365
37.33	6.38782
37.34	6.4263
37.35	6.39078
37.36	6.33255
37.37	6.38782
37.38	6.40986
37.39	6.374
37.4	6.35887
37.41	6.37301
37.42	6.38222
37.43	6.40196
37.44	6.38321
37.45	6.39143
37.46	6.43354
37.47	6.41347
37.48	6.38091
37.49	6.38091
37.5	6.35689
37.51	6.36643
37.52	6.35525
37.53	6.44012
37.54	6.42959
37.55	6.35722
37.56	6.46117
37.57	6.39999
37.58	6.38683
37.59	6.42861
37.6	6.39505
37.61	6.41183
37.62	6.40295
37.63	6.38157
37.64	6.3786
37.65	6.37038
37.66	6.39078
37.67	6.38058
37.68	6.40788
37.69	6.35624
37.7	6.35229
37.71	6.40393
37.72	6.37433
37.73	6.39111
37.74	6.35591
37.75	6.38782
37.76	6.399
37.77	6.3865
37.78	6.39176
37.79	6.3286
37.8	6.38321
37.81	6.36808
37.82	6.4115
37.83	6.37071
37.84	6.34867
37.85	6.35624
37.86	6.39143
37.87	6.34801
37.88	6.37367
37.89	6.42005
37.9	6.38255
37.91	6.34341
37.92	6.3865
37.93	6.42828
37.94	6.38091
37.95	6.41051
37.96	6.38025
37.97	6.34077
37.98	6.35953
37.99	6.38025
38	6.36446
38.01	6.36709
38.02	6.3717
38.03	6.42926
38.04	6.37795
38.05	6.41249
38.06	6.39867
38.07	6.39209
38.08	6.38979
38.09	6.41084
38.1	6.42005
38.11	6.39341
38.12	6.424
38.13	6.40591
38.14	6.34768
38.15	6.42926
38.16	6.42795
38.17	6.40755
38.18	6.43946
38.19	6.38189
38.2	6.44604
38.21	6.44275
38.22	6.42137
38.23	6.36347
38.24	6.36545
38.25	6.37893
38.26	6.36018
38.27	6.47663
38.28	6.41611
38.29	6.4342
38.3	6.36216
38.31	6.37005
38.32	6.41512
38.33	6.40393
38.34	6.4092
38.35	6.39604
38.36	6.35788
38.37	6.38025
38.38	6.37235
38.39	6.40032
38.4	6.41676
38.41	6.39472
38.42	6.35656
38.43	6.39374
38.44	6.41117
38.45	6.36841
38.46	6.36545
38.47	6.41578
38.48	6.38189
38.49	6.35985
38.5	6.39341
38.51	6.41084
38.52	6.34045
38.53	6.38518
38.54	6.38157
38.55	6.3865
38.56	6.39505
38.57	6.32466
38.58	6.36183
38.59	6.37729
38.6	6.3263
38.61	6.37893
38.62	6.39538
38.63	6.43025
38.64	6.34176
38.65	6.36578
38.66	6.37203
38.67	6.38288
38.68	6.41742
38.69	6.39275
38.7	6.40097
38.71	6.42005
38.72	6.399
38.73	6.34933
38.74	6.33124
38.75	6.43782
38.76	6.42367
38.77	6.40854
38.78	6.44374
38.79	6.36709
38.8	6.3717
38.81	6.37762
38.82	6.40393
38.83	6.38025
38.84	6.35459
38.85	6.32827
38.86	6.3342
38.87	6.37038
38.88	6.4013
38.89	6.39999
38.9	6.39209
38.91	6.36479
38.92	6.39505
38.93	6.43782
38.94	6.39242
38.95	6.38091
38.96	6.39768
38.97	6.42499
38.98	6.39834
38.99	6.49538
39	6.37696
39.01	6.39604
39.02	6.38157
39.03	6.41084
39.04	6.39637
39.05	6.37268
39.06	6.38255
39.07	6.41545
39.08	6.41051
39.09	6.3717
39.1	6.38518
39.11	6.37235
39.12	6.36907
39.13	6.33288
39.14	6.38288
39.15	6.40591
39.16	6.37893
39.17	6.42828
39.18	6.44176
39.19	6.37334
39.2	6.4263
39.21	6.37663
39.22	6.3342
39.23	6.42926
39.24	6.37499
39.25	6.37597
39.26	6.36841
39.27	6.38683
39.28	6.35295
39.29	6.32992
39.3	6.35755
39.31	6.38321
39.32	6.36545
39.33	6.36545
39.34	6.40788
39.35	6.34077
39.36	6.36643
39.37	6.38814
39.38	6.4217
39.39	6.43815
39.4	6.44374
39.41	6.38354
39.42	6.4115
39.43	6.36512
39.44	6.35624
39.45	6.37762
39.46	6.38683
39.47	6.39078
39.48	6.39407
39.49	6.39472
39.5	6.42466
39.51	6.38222
39.52	6.40459
39.53	6.40459
39.54	6.41216
39.55	6.37893
39.56	6.31873
39.57	6.36216
39.58	6.39736
39.59	6.41545
39.6	6.35854
39.61	6.39078
39.62	6.40953
39.63	6.39341
39.64	6.40196
39.65	6.38255
39.66	6.3888
39.67	6.43222
39.68	6.35722
39.69	6.35624
39.7	6.40328
39.71	6.35854
39.72	6.36775
39.73	6.35328
39.74	6.39275
39.75	6.39439
39.76	6.33255
39.77	6.3888
39.78	6.36939
39.79	6.40196
39.8	6.40196
39.81	6.40525
39.82	6.36939
39.83	6.4013
39.84	6.40788
39.85	6.36578
39.86	6.39933
39.87	6.39143
39.88	6.39933
39.89	6.40657
39.9	6.34768
39.91	6.37564
39.92	6.36446
39.93	6.37959
39.94	6.4013
39.95	6.40295
39.96	6.39867
39.97	6.37828
39.98	6.38091
39.99	6.37301
40	6.3717
40.01	6.36709
40.02	6.40064
40.03	6.41446
40.04	6.36676
40.05	6.34472
40.06	6.37597
40.07	6.35558
40.08	6.36216
40.09	6.40229
40.1	6.31972
40.11	6.36643
40.12	6.40229
40.13	6.40032
40.14	6.4092
40.15	6.40328
40.16	6.38946
40.17	6.39472
40.18	6.38749
40.19	6.39143
40.2	6.38946
40.21	6.39374
40.22	6.33058
40.23	6.36183
40.24	6.38551
40.25	6.40558
40.26	6.36775
40.27	6.41446
40.28	6.39143
40.29	6.37893
40.3	6.38551
40.31	6.35459
40.32	6.3615
40.33	6.40821
40.34	6.38913
40.35	6.36578
40.36	6.40788
40.37	6.39374
40.38	6.34801
40.39	6.35788
40.4	6.42894
40.41	6.43716
40.42	6.38288
40.43	6.34999
40.44	6.36183
40.45	6.36479
40.46	6.41018
40.47	6.44045
40.48	6.37104
40.49	6.38025
40.5	6.35328
40.51	6.40032
40.52	6.38124
40.53	6.39538
40.54	6.35558
40.55	6.40492
40.56	6.41051
40.57	6.44308
40.58	6.45262
40.59	6.44078
40.6	6.4194
40.61	6.38518
40.62	6.39571
40.63	6.3842
40.64	6.3717
40.65	6.36018
40.66	6.44242
40.67	6.38222
40.68	6.34505
40.69	6.40657
40.7	6.36775
40.71	6.29472
40.72	6.33814
40.73	6.39012
40.74	6.39012
40.75	6.38749
40.76	6.41216
40.77	6.41676
40.78	6.37893
40.79	6.39933
40.8	6.39308
40.81	6.36643
40.82	6.40064
40.83	6.42532
40.84	6.37729
40.85	6.36051
40.86	6.35558
40.87	6.39999
40.88	6.40064
40.89	6.38485
40.9	6.3388
40.91	6.39966
40.92	6.39505
40.93	6.38485
40.94	6.4319
40.95	6.37992
40.96	6.43124
40.97	6.39768
40.98	6.35755
40.99	6.3615
41	6.36939
41.01	6.41841
41.02	6.39176
41.03	6.40229
41.04	6.37268
41.05	6.41611
41.06	6.39538
41.07	6.40788
41.08	6.41347
41.09	6.42696
41.1	6.39999
41.11	6.39801
41.12	6.40657
41.13	6.40722
41.14	6.39242
41.15	6.42334
41.16	6.39834
41.17	6.40953
41.18	6.40854
41.19	6.3967
41.2	6.42926
41.21	6.36775
41.22	6.38485
41.23	6.44604
41.24	6.39078
41.25	6.39571
41.26	6.36249
41.27	6.40755
41.28	6.43354
41.29	6.36249
41.3	6.39604
41.31	6.41742
41.32	6.35887
41.33	6.42268
41.34	6.3592
41.35	6.42926
41.36	6.42005
41.37	6.39407
41.38	6.39801
41.39	6.40854
41.4	6.43124
41.41	6.43321
41.42	6.39374
41.43	6.42663
41.44	6.43782
41.45	6.41018
41.46	6.37663
41.47	6.37893
41.48	6.40788
41.49	6.36446
41.5	6.40393
41.51	6.40032
41.52	6.36347
41.53	6.3661
41.54	6.43222
41.55	6.39111
41.56	6.42861
41.57	6.4115
41.58	6.39275
41.59	6.35689
41.6	6.39308
41.61	6.38255
41.62	6.39538
41.63	6.41446
41.64	6.36216
41.65	6.349
41.66	6.35492
41.67	6.37564
41.68	6.36907
41.69	6.43847
41.7	6.38782
41.71	6.41709
41.72	6.3513
41.73	6.41183
41.74	6.34209
41.75	6.37926
41.76	6.37992
41.77	6.39078
41.78	6.37334
41.79	6.39867
41.8	6.40854
41.81	6.35755
41.82	6.38058
41.83	6.42762
41.84	6.41643
41.85	6.399
41.86	6.38749
41.87	6.36972
41.88	6.38091
41.89	6.40854
41.9	6.40657
41.91	6.41315
41.92	6.36117
41.93	6.36874
41.94	6.38124
41.95	6.39374
41.96	6.39505
41.97	6.42268
41.98	6.4013
41.99	6.38189
42	6.37696
42.01	6.3763
42.02	6.34538
42.03	6.35656
42.04	6.3717
42.05	6.35985
42.06	6.41611
42.07	6.35393
42.08	6.45295
42.09	6.45492
42.1	6.41051
42.11	6.39834
42.12	6.39604
42.13	6.40459
42.14	6.38124
42.15	6.4138
42.16	6.33847
42.17	6.37564
42.18	6.37104
42.19	6.37203
42.2	6.35163
42.21	6.41479
42.22	6.35525
42.23	6.38058
42.24	6.37893
42.25	6.36314
42.26	6.35722
42.27	6.38749
42.28	6.42894
42.29	6.40821
42.3	6.38255
42.31	6.36972
42.32	6.36018
42.33	6.34571
42.34	6.37893
42.35	6.3342
42.36	6.3365
42.37	6.41512
42.38	6.38683
42.39	6.38025
42.4	6.38485
42.41	6.43157
42.42	6.40163
42.43	6.40295
42.44	6.41512
42.45	6.39801
42.46	6.3615
42.47	6.39045
42.48	6.39472
42.49	6.34505
42.5	6.36347
42.51	6.39045
42.52	6.40657
42.53	6.34637
42.54	6.40854
42.55	6.36841
42.56	6.37235
42.57	6.37235
42.58	6.38749
42.59	6.36216
42.6	6.35558
42.61	6.40657
42.62	6.37893
42.63	6.37959
42.64	6.38979
42.65	6.40657
42.66	6.37532
42.67	6.40163
42.68	6.38025
42.69	6.40821
42.7	6.39209
42.71	6.39472
42.72	6.36775
42.73	6.40097
42.74	6.39439
42.75	6.39242
42.76	6.37532
42.77	6.39604
42.78	6.40986
42.79	6.40032
42.8	6.42334
42.81	6.44769
42.82	6.38617
42.83	6.39374
42.84	6.33913
42.85	6.41578
42.86	6.4194
42.87	6.43222
42.88	6.44834
42.89	6.41216
42.9	6.40459
42.91	6.4013
42.92	6.41611
42.93	6.40953
42.94	6.39999
42.95	6.40591
42.96	6.3717
42.97	6.39439
42.98	6.36479
42.99	6.36512
43	6.39472
43.01	6.38025
43.02	6.39374
43.03	6.38091
43.04	6.35328
43.05	6.36314
43.06	6.37433
43.07	6.39505
43.08	6.39078
43.09	6.39176
43.1	6.38189
43.11	6.40163
43.12	6.41479
43.13	6.41018
43.14	6.4069
43.15	6.36446
43.16	6.38453
43.17	6.42071
43.18	6.39703
43.19	6.38716
43.2	6.42433
43.21	6.41808
43.22	6.39308
43.23	6.37071
43.24	6.33058
43.25	6.38157
43.26	6.41315
43.27	6.39505
43.28	6.39571
43.29	6.38255
43.3	6.37696
43.31	6.3536
43.32	6.42433
43.33	6.3967
43.34	6.44769
43.35	6.42663
43.36	6.39078
43.37	6.36676
43.38	6.41018
43.39	6.41578
43.4	6.41051
43.41	6.36742
43.42	6.38518
43.43	6.4365
43.44	6.40459
43.45	6.40262
43.46	6.35854
43.47	6.37038
43.48	6.38387
43.49	6.36249
43.5	6.37762
43.51	6.38091
43.52	6.3763
43.53	6.39736
43.54	6.35624
43.55	6.38124
43.56	6.36676
43.57	6.37597
43.58	6.33288
43.59	6.41018
43.6	6.40525
43.61	6.38058
43.62	6.34867
43.63	6.35821
43.64	6.36643
43.65	6.37564
43.66	6.3513
43.67	6.36183
43.68	6.36117
43.69	6.41907
43.7	6.39275
43.71	6.37334
43.72	6.34045
43.73	6.38453
43.74	6.41051
43.75	6.37104
43.76	6.4013
43.77	6.39472
43.78	6.36972
43.79	6.32038
43.8	6.40887
43.81	6.41479
43.82	6.35591
43.83	6.36117
43.84	6.32992
43.85	6.39439
43.86	6.38025
43.87	6.38124
43.88	6.40558
43.89	6.40525
43.9	6.39801
43.91	6.40295
43.92	6.37466
43.93	6.40558
43.94	6.36907
43.95	6.3842
43.96	6.31183
43.97	6.38321
43.98	6.42433
43.99	6.44078
44	6.38025
44.01	6.38058
44.02	6.40328
44.03	6.38387
44.04	6.34176
44.05	6.33518
44.06	6.38551
44.07	6.39078
44.08	6.34406
44.09	6.37696
44.1	6.36413
44.11	6.33387
44.12	6.36281
44.13	6.35558
44.14	6.40722
44.15	6.39703
44.16	6.41315
44.17	6.36709
44.18	6.36643
44.19	6.32038
44.2	6.37005
44.21	6.37696
44.22	6.39834
44.23	6.40328
44.24	6.3717
44.25	6.39242
44.26	6.38518
44.27	6.33683
44.28	6.34374
44.29	6.34735
44.3	6.35229
44.31	6.36972
44.32	6.37926
44.33	6.40328
44.34	6.40953
44.35	6.41018
44.36	6.374
44.37	6.36907
44.38	6.42268
44.39	6.37071
44.4	6.39045
44.41	6.44801
44.42	6.37564
44.43	6.34143
44.44	6.39176
44.45	6.38749
44.46	6.40064
44.47	6.40558
44.48	6.38189
44.49	6.33321
44.5	6.40558
44.51	6.41545
44.52	6.42861
44.53	6.39308
44.54	6.38222
44.55	6.39505
44.56	6.39407
44.57	6.40459
44.58	6.45196
44.59	6.43354
44.6	6.40854
44.61	6.42236
44.62	6.3967
44.63	6.38913
44.64	6.35262
44.65	6.41907
44.66	6.37959
44.67	6.36512
44.68	6.40788
44.69	6.43091
44.7	6.39736
44.71	6.41347
44.72	6.39637
44.73	6.39374
44.74	6.36775
44.75	6.43354
44.76	6.39637
44.77	6.37532
44.78	6.4342
44.79	6.40393
44.8	6.4388
44.81	6.41446
44.82	6.41315
44.83	6.42762
44.84	6.36446
44.85	6.39538
44.86	6.37959
44.87	6.43321
44.88	6.41545
44.89	6.37038
44.9	6.37499
44.91	6.37696
44.92	6.33683
44.93	6.31808
44.94	6.41874
44.95	6.38814
44.96	6.37499
44.97	6.36249
44.98	6.37334
44.99	6.40821
45	6.3888
45.01	6.40328
45.02	6.39242
45.03	6.44209
45.04	6.43815
45.05	6.42367
45.06	6.44407
45.07	6.42071
45.08	6.40558
45.09	6.41972
45.1	6.37137
45.11	6.42071
45.12	6.38091
45.13	6.39637
45.14	6.35788
45.15	6.36676
45.16	6.40624
45.17	6.40591
45.18	6.37466
45.19	6.40525
45.2	6.37992
45.21	6.36676
45.22	6.38189
45.23	6.39801
45.24	6.42071
45.25	6.41907
45.26	6.38387
45.27	6.37499
45.28	6.35295
45.29	6.34275
45.3	6.38847
45.31	6.41841
45.32	6.38321
45.33	6.42696
45.34	6.41578
45.35	6.4013
45.36	6.38946
45.37	6.35722
45.38	6.40492
45.39	6.40525
45.4	6.33847
45.41	6.37071
45.42	6.40591
45.43	6.41446
45.44	6.39571
45.45	6.42597
45.46	6.40525
45.47	6.38518
45.48	6.39703
45.49	6.44111
45.5	6.39571
45.51	6.33255
45.52	6.38222
45.53	6.38124
45.54	6.39604
45.55	6.39176
45.56	6.36742
45.57	6.36545
45.58	6.41512
45.59	6.35525
45.6	6.39242
45.61	6.36972
45.62	6.36907
45.63	6.39933
45.64	6.37532
45.65	6.39637
45.66	6.42104
45.67	6.39933
45.68	6.39834
45.69	6.43584
45.7	6.38288
45.71	6.40196
45.72	6.36841
45.73	6.41051
45.74	6.34176
45.75	6.34999
45.76	6.38091
45.77	6.35821
45.78	6.38255
45.79	6.38025
45.8	6.40887
45.81	6.37071
45.82	6.41972
45.83	6.41446
45.84	6.40986
45.85	6.449
45.86	6.39801
45.87	6.36249
45.88	6.39703
45.89	6.39143
45.9	6.40525
45.91	6.39209
45.92	6.36775
45.93	6.36018
45.94	6.37104
45.95	6.39341
45.96	6.42729
45.97	6.40558
45.98	6.40097
45.99	6.39176
46	6.42597
46.01	6.40426
46.02	6.39768
46.03	6.42005
46.04	6.42696
46.05	6.37466
46.06	6.3638
46.07	6.38091
46.08	6.34341
46.09	6.40361
46.1	6.37532
46.11	6.39374
46.12	6.42532
46.13	6.42861
46.14	6.40986
46.15	6.36939
46.16	6.39604
46.17	6.33518
46.18	6.34045
46.19	6.37104
46.2	6.349
46.21	6.38584
46.22	6.36249
46.23	6.36676
46.24	6.38617
46.25	6.45624
46.26	6.33749
46.27	6.37762
46.28	6.34966
46.29	6.40064
46.3	6.36413
46.31	6.40426
46.32	6.42926
46.33	6.40525
46.34	6.39867
46.35	6.38716
46.36	6.35163
46.37	6.35492
46.38	6.41907
46.39	6.34999
46.4	6.38124
46.41	6.35887
46.42	6.34176
46.43	6.39012
46.44	6.3967
46.45	6.38189
46.46	6.38749
46.47	6.3865
46.48	6.38683
46.49	6.40032
46.5	6.41841
46.51	6.38124
46.52	6.38979
46.53	6.43486
46.54	6.36314
46.55	6.34209
46.56	6.40492
46.57	6.37795
46.58	6.34209
46.59	6.36216
46.6	6.35953
46.61	6.34637
46.62	6.38189
46.63	6.34702
46.64	6.38255
46.65	6.3967
46.66	6.38749
46.67	6.36051
46.68	6.34275
46.69	6.40262
46.7	6.33354
46.71	6.39999
46.72	6.42268
46.73	6.39209
46.74	6.32564
46.75	6.32071
46.76	6.38782
46.77	6.42071
46.78	6.37696
46.79	6.37926
46.8	6.38255
46.81	6.35788
46.82	6.32926
46.83	6.40887
46.84	6.44867
46.85	6.43025
46.86	6.36775
46.87	6.42663
46.88	6.3842
46.89	6.38749
46.9	6.4069
46.91	6.40722
46.92	6.39111
46.93	6.38025
46.94	6.35985
46.95	6.35558
46.96	6.35953
46.97	6.37433
46.98	6.38847
46.99	6.35229
47	6.34406
47.01	6.39604
47.02	6.44144
47.03	6.3786
47.04	6.39768
47.05	6.36808
47.06	6.33814
47.07	6.31314
47.08	6.35985
47.09	6.42104
47.1	6.41183
47.11	6.44407
47.12	6.37104
47.13	6.38025
47.14	6.40887
47.15	6.37301
47.16	6.34702
47.17	6.41117
47.18	6.39045
47.19	6.37466
47.2	6.37203
47.21	6.39933
47.22	6.39867
47.23	6.42071
47.24	6.36808
47.25	6.42268
47.26	6.36907
47.27	6.39407
47.28	6.36643
47.29	6.37564
47.3	6.37663
47.31	6.36709
47.32	6.34768
47.33	6.36018
47.34	6.36216
47.35	6.39341
47.36	6.39472
47.37	6.40328
47.38	6.38189
47.39	6.40163
47.4	6.40953
47.41	6.3661
47.42	6.39374
47.43	6.34012
47.44	6.30262
47.45	6.34768
47.46	6.37597
47.47	6.37729
47.48	6.41643
47.49	6.39439
47.5	6.42959
47.51	6.38946
47.52	6.3786
47.53	6.41907
47.54	6.40591
47.55	6.40722
47.56	6.43025
47.57	6.40558
47.58	6.39966
47.59	6.37926
47.6	6.36446
47.61	6.37663
47.62	6.41084
47.63	6.37301
47.64	6.38453
47.65	6.40887
47.66	6.38354
47.67	6.35295
47.68	6.35328
47.69	6.38584
47.7	6.39012
47.71	6.36117
47.72	6.37104
47.73	6.41611
47.74	6.37992
47.75	6.39012
47.76	6.38091
47.77	6.41347
47.78	6.42663
47.79	6.39439
47.8	6.35558
47.81	6.39374
47.82	6.37828
47.83	6.36841
47.84	6.3615
47.85	6.42137
47.86	6.36907
47.87	6.36512
47.88	6.38518
47.89	6.35624
47.9	6.41216
47.91	6.35624
47.92	6.35558
47.93	6.38716
47.94	6.40525
47.95	6.39867
47.96	6.40821
47.97	6.40163
47.98	6.34801
47.99	6.42038
48	6.40426
48.01	6.4092
48.02	6.38288
48.03	6.4388
48.04	6.40525
48.05	6.38387
48.06	6.40459
48.07	6.35295
48.08	6.41874
48.09	6.37696
48.1	6.38222
48.11	6.36643
48.12	6.39078
48.13	6.42203
48.14	6.40097
48.15	6.37959
48.16	6.35262
48.17	6.33913
48.18	6.37828
48.19	6.36314
48.2	6.424
48.21	6.3888
48.22	6.33222
48.23	6.40459
48.24	6.42203
48.25	6.34768
48.26	6.31841
48.27	6.37663
48.28	6.37893
48.29	6.42367
48.3	6.37301
48.31	6.34505
48.32	6.41479
48.33	6.39867
48.34	6.37663
48.35	6.39209
48.36	6.36117
48.37	6.4092
48.38	6.38814
48.39	6.4013
48.4	6.37268
48.41	6.37959
48.42	6.33124
48.43	6.4013
48.44	6.40624
48.45	6.35229
48.46	6.35755
48.47	6.42762
48.48	6.38716
48.49	6.36742
48.5	6.38814
48.51	6.33847
48.52	6.37466
48.53	6.35656
48.54	6.37729
48.55	6.42861
48.56	6.36051
48.57	6.38091
48.58	6.37466
48.59	6.35558
48.6	6.38354
48.61	6.40097
48.62	6.38354
48.63	6.38189
48.64	6.4092
48.65	6.45887
48.66	6.39012
48.67	6.38584
48.68	6.33781
48.69	6.38749
48.7	6.40591
48.71	6.44374
48.72	6.41315
48.73	6.36709
48.74	6.42663
48.75	6.33124
48.76	6.41315
48.77	6.37005
48.78	6.36972
48.79	6.35624
48.8	6.38814
48.81	6.39242
48.82	6.42926
48.83	6.38189
48.84	6.37301
48.85	6.40393
48.86	6.43486
48.87	6.3513
48.88	6.35328
48.89	6.40525
48.9	6.38387
48.91	6.41874
48.92	6.37597
48.93	6.43486
48.94	6.39374
48.95	6.36643
48.96	6.38288
48.97	6.40459
48.98	6.42038
48.99	6.4217
49	6.38584
49.01	6.33716
49.02	6.41183
49.03	6.35656
49.04	6.39275
49.05	6.36775
49.06	6.40361
49.07	6.38946
49.08	6.37137
49.09	6.41907
49.1	6.31413
49.11	6.33091
49.12	6.37466
49.13	6.36216
49.14	6.3967
49.15	6.39111
49.16	6.39768
49.17	6.42236
49.18	6.37828
49.19	6.42466
49.2	6.38354
49.21	6.41117
49.22	6.37104
49.23	6.42992
49.24	6.37203
49.25	6.34571
49.26	6.35459
49.27	6.36446
49.28	6.41512
49.29	6.38354
49.3	6.43091
49.31	6.37959
49.32	6.35624
49.33	6.37268
49.34	6.38814
49.35	6.37499
49.36	6.38847
49.37	6.38124
49.38	6.41512
49.39	6.36051
49.4	6.37729
49.41	6.42729
49.42	6.45163
49.43	6.42367
49.44	6.37992
49.45	6.35755
49.46	6.39242
49.47	6.38683
49.48	6.38288
49.49	6.43157
49.5	6.3763
49.51	6.37959
49.52	6.37268
49.53	6.37532
49.54	6.37959
49.55	6.37367
49.56	6.41841
49.57	6.39703
49.58	6.35328
49.59	6.37926
49.6	6.38913
49.61	6.37235
49.62	6.39505
49.63	6.39933
49.64	6.3786
49.65	6.4115
49.66	6.36281
49.67	6.3661
49.68	6.39078
49.69	6.39703
49.7	6.38551
49.71	6.38157
49.72	6.38255
49.73	6.35393
49.74	6.38946
49.75	6.4013
49.76	6.34374
49.77	6.38782
49.78	6.39834
49.79	6.38354
49.8	6.39407
49.81	6.4013
49.82	6.40953
49.83	6.40032
49.84	6.40591
49.85	6.35163
49.86	6.3888
49.87	6.3661
49.88	6.3786
49.89	6.39933
49.9	6.44703
49.91	6.40755
49.92	6.41643
49.93	6.40722
49.94	6.3865
49.95	6.38091
49.96	6.34966
49.97	6.36347
49.98	6.37893
49.99	6.34077
50	6.40393
