"BIO-KINE ASCII FILE"
"_COMMENT"	"MOS-500 Spectrometer"
"_COMMENT"	"Kinetics measurement"
"_COMMENT"	"Y Unit : Volt,  X Unit : s"
"_COMMENT"	"Excitation wavelength : 340 nm"
"_COMMENT"	"Fentes bandwidth =  1 nm"
"_COMMENT"	"HV= 800V"
"_COMMENT"	"Timebase  1 =  .01 s   3001 pts"
"_SFM"	"SFM-400 /S  Advanced mode"
"_SFM"	"Ratio : S1: 2.5, S2: 0, S3: 0, S4: 1"
"_SFM"	"Content : S1: , S2: , S3: , S4:"
"_SFM"	"Concentration : S1: , S2: , S3: , S4:"
"_SFM"	"Total volume : 209 µl  Flow : 3.5 mL/s"
"_SFM"	"Acquisition start :  10 ms before stop"
"_SFM"	"cuve=FC-15, s1=10 ml , s2=10 ml , s3=10 ml , s4=1.9 ml"
"_UNITX"	"s"
"_UNITY"	"Volt"
"_DELTAX"	0
"_DATA"
1e-300	7.68818
0.01	7.50692
0.02	7.5566
0.03	7.6112
0.04	7.58357
0.05	7.59114
0.06	7.59443
0.07	7.57272
0.08	7.57568
0.09	7.57929
0.1	7.57008
0.11	7.60594
0.12	7.60627
0.13	7.61416
0.14	7.63127
0.15	7.61416
0.16	7.58949
0.17	7.63094
0.18	7.62699
0.19	7.61548
0.2	7.62502
0.21	7.63818
0.22	7.63061
0.23	7.62666
0.24	7.64212
0.25	7.64278
0.26	7.63785
0.27	7.66022
0.28	7.68193
0.29	7.66581
0.3	7.65693
0.31	7.65002
0.32	7.64805
0.33	7.65956
0.34	7.66943
0.35	7.67107
0.36	7.68226
0.37	7.67173
0.38	7.68884
0.39	7.67667
0.4	7.68061
0.41	7.69377
0.42	7.69772
0.43	7.71088
0.44	7.71022
0.45	7.68917
0.46	7.68982
0.47	7.72436
0.48	7.7043
0.49	7.72009
0.5	7.69903
0.51	7.71219
0.52	7.71746
0.53	7.7293
0.54	7.71055
0.55	7.73028
0.56	7.72371
0.57	7.73884
0.58	7.74673
0.59	7.75463
0.6	7.75989
0.61	7.7543
0.62	7.72239
0.63	7.73752
0.64	7.76417
0.65	7.76877
0.66	7.73423
0.67	7.76121
0.68	7.76483
0.69	7.76943
0.7	7.76121
0.71	7.76154
0.72	7.75923
0.73	7.75265
0.74	7.76219
0.75	7.78259
0.76	7.77305
0.77	7.78094
0.78	7.7714
0.79	7.78062
0.8	7.77765
0.81	7.79706
0.82	7.80989
0.83	7.80101
0.84	7.78588
0.85	7.80562
0.86	7.78522
0.87	7.80331
0.88	7.79706
0.89	7.80693
0.9	7.80693
0.91	7.8145
0.92	7.80792
0.93	7.82206
0.94	7.83292
0.95	7.8191
0.96	7.82996
0.97	7.80627
0.98	7.82272
0.99	7.80068
1	7.84937
1.01	7.84509
1.02	7.84048
1.03	7.83687
1.04	7.83588
1.05	7.83489
1.06	7.86252
1.07	7.84641
1.08	7.83325
1.09	7.83259
1.1	7.85595
1.11	7.85002
1.12	7.87897
1.13	7.84871
1.14	7.84641
1.15	7.85331
1.16	7.87437
1.17	7.8793
1.18	7.89016
1.19	7.87864
1.2	7.87042
1.21	7.87206
1.22	7.8941
1.23	7.88983
1.24	7.87503
1.25	7.88193
1.26	7.8941
1.27	7.90628
1.28	7.91647
1.29	7.90924
1.3	7.91286
1.31	7.91812
1.32	7.91647
1.33	7.91779
1.34	7.91614
1.35	7.94345
1.36	7.93786
1.37	7.92009
1.38	7.92996
1.39	7.96088
1.4	7.94443
1.41	7.94378
1.42	7.93292
1.43	7.93391
1.44	7.94904
1.45	7.96286
1.46	7.94312
1.47	7.94805
1.48	7.96516
1.49	7.94147
1.5	7.94674
1.51	7.95266
1.52	7.93555
1.53	7.94805
1.54	7.98391
1.55	7.95463
1.56	7.97733
1.57	7.99049
1.58	8.0145
1.59	8.00595
1.6	7.99115
1.61	7.97865
1.62	7.98292
1.63	7.98819
1.64	7.97766
1.65	7.98621
1.66	7.98029
1.67	7.9997
1.68	7.99246
1.69	7.99345
1.7	8.00727
1.71	8.02569
1.72	7.98819
1.73	8.00299
1.74	8.01023
1.75	8.04049
1.76	8.03621
1.77	8.00496
1.78	8.01319
1.79	8.01944
1.8	8.01516
1.81	8.03424
1.82	8.00299
1.83	8.05069
1.84	8.05496
1.85	8.04082
1.86	8.04641
1.87	8.04937
1.88	8.0497
1.89	8.05299
1.9	8.04937
1.91	8.05529
1.92	8.05661
1.93	8.05924
1.94	8.04773
1.95	8.05135
1.96	8.06681
1.97	8.05628
1.98	8.06516
1.99	8.06746
2	8.0747
2.01	8.07832
2.02	8.07536
2.03	8.07569
2.04	8.08128
2.05	8.07832
2.06	8.10891
2.07	8.08819
2.08	8.06319
2.09	8.102
2.1	8.10825
2.11	8.08852
2.12	8.08161
2.13	8.10858
2.14	8.10464
2.15	8.09707
2.16	8.10069
2.17	8.11812
2.18	8.10825
2.19	8.09773
2.2	8.11747
2.21	8.12964
2.22	8.11977
2.23	8.11747
2.24	8.09543
2.25	8.11615
2.26	8.11812
2.27	8.11187
2.28	8.15727
2.29	8.14608
2.3	8.12273
2.31	8.12865
2.32	8.13556
2.33	8.17043
2.34	8.14444
2.35	8.17964
2.36	8.15102
2.37	8.15957
2.38	8.17405
2.39	8.16418
2.4	8.1372
2.41	8.15826
2.42	8.16845
2.43	8.2053
2.44	8.17273
2.45	8.18655
2.46	8.19378
2.47	8.16845
2.48	8.17701
2.49	8.17668
2.5	8.16944
2.51	8.15398
2.52	8.18556
2.53	8.17931
2.54	8.19872
2.55	8.18424
2.56	8.18424
2.57	8.17635
2.58	8.1803
2.59	8.18786
2.6	8.19378
2.61	8.20826
2.62	8.22734
2.63	8.19905
2.64	8.19543
2.65	8.21878
2.66	8.21615
2.67	8.21813
2.68	8.23984
2.69	8.20563
2.7	8.20563
2.71	8.22109
2.72	8.23424
2.73	8.23753
2.74	8.23951
2.75	8.22372
2.76	8.20398
2.77	8.21286
2.78	8.23424
2.79	8.27701
2.8	8.25924
2.81	8.25464
2.82	8.25464
2.83	8.23161
2.84	8.26122
2.85	8.2803
2.86	8.25102
2.87	8.26517
2.88	8.24543
2.89	8.25497
2.9	8.27207
2.91	8.26484
2.92	8.27109
2.93	8.25628
2.94	8.25694
2.95	8.25727
2.96	8.2826
2.97	8.27339
2.98	8.2826
2.99	8.26385
3	8.25793
3.01	8.27569
3.02	8.29181
3.03	8.27569
3.04	8.29082
3.05	8.29872
3.06	8.27898
3.07	8.29411
3.08	8.27701
3.09	8.29346
3.1	8.30036
3.11	8.29444
3.12	8.29346
3.13	8.32602
3.14	8.30431
3.15	8.30431
3.16	8.30234
3.17	8.28655
3.18	8.28096
3.19	8.27043
3.2	8.29379
3.21	8.32471
3.22	8.31681
3.23	8.31221
3.24	8.31911
3.25	8.328
3.26	8.32471
3.27	8.33161
3.28	8.30661
3.29	8.30826
3.3	8.3474
3.31	8.34379
3.32	8.34543
3.33	8.34444
3.34	8.34017
3.35	8.34083
3.36	8.32602
3.37	8.33556
3.38	8.36977
3.39	8.35859
3.4	8.34181
3.41	8.35102
3.42	8.34872
3.43	8.35958
3.44	8.37734
3.45	8.37208
3.46	8.36188
3.47	8.37537
3.48	8.38655
3.49	8.3701
3.5	8.36418
3.51	8.36846
3.52	8.3951
3.53	8.36616
3.54	8.36846
3.55	8.37537
3.56	8.38754
3.57	8.40234
3.58	8.39708
3.59	8.3882
3.6	8.41287
3.61	8.41912
3.62	8.39971
3.63	8.39971
3.64	8.38096
3.65	8.38918
3.66	8.39477
3.67	8.4076
3.68	8.41912
3.69	8.40695
3.7	8.40464
3.71	8.40398
3.72	8.41122
3.73	8.41122
3.74	8.4178
3.75	8.42208
3.76	8.43063
3.77	8.41089
3.78	8.41649
3.79	8.42635
3.8	8.42899
3.81	8.44971
3.82	8.44839
3.83	8.44247
3.84	8.45168
3.85	8.44379
3.86	8.42208
3.87	8.44971
3.88	8.45662
3.89	8.4303
3.9	8.44642
3.91	8.4155
3.92	8.41879
3.93	8.4553
3.94	8.4553
3.95	8.45168
3.96	8.46221
3.97	8.478
3.98	8.45892
3.99	8.47307
4	8.46254
4.01	8.44313
4.02	8.47208
4.03	8.453
4.04	8.47241
4.05	8.45234
4.06	8.46583
4.07	8.46583
4.08	8.48524
4.09	8.46484
4.1	8.49017
4.11	8.49543
4.12	8.49938
4.13	8.50629
4.14	8.48326
4.15	8.46879
4.16	8.49576
4.17	8.50037
4.18	8.49675
4.19	8.50201
4.2	8.49708
4.21	8.49872
4.22	8.49938
4.23	8.49214
4.24	8.49741
4.25	8.53754
4.26	8.52471
4.27	8.51583
4.28	8.50695
4.29	8.50563
4.3	8.49379
4.31	8.51418
4.32	8.52997
4.33	8.52438
4.34	8.52767
4.35	8.54313
4.36	8.52504
4.37	8.54215
4.38	8.54544
4.39	8.51517
4.4	8.55432
4.41	8.54741
4.42	8.5359
4.43	8.52307
4.44	8.54905
4.45	8.55629
4.46	8.53162
4.47	8.54708
4.48	8.55925
4.49	8.53721
4.5	8.51747
4.51	8.54478
4.52	8.56287
4.53	8.53886
4.54	8.57241
4.55	8.56353
4.56	8.56057
4.57	8.55695
4.58	8.56386
4.59	8.55925
4.6	8.54511
4.61	8.55498
4.62	8.55136
4.63	8.5484
4.64	8.55859
4.65	8.54971
4.66	8.55498
4.67	8.58721
4.68	8.57965
4.69	8.58195
4.7	8.56649
4.71	8.56123
4.72	8.55136
4.73	8.57965
4.74	8.57471
4.75	8.60333
4.76	8.58294
4.77	8.59478
4.78	8.58655
4.79	8.57734
4.8	8.58557
4.81	8.58294
4.82	8.60004
4.83	8.5859
4.84	8.59741
4.85	8.5928
4.86	8.58655
4.87	8.5905
4.88	8.59248
4.89	8.59873
4.9	8.5803
4.91	8.58952
4.92	8.60399
4.93	8.59346
4.94	8.60859
4.95	8.61254
4.96	8.59741
4.97	8.5928
4.98	8.60728
4.99	8.62438
5	8.64708
5.01	8.63195
5.02	8.59313
5.03	8.59971
5.04	8.60333
5.05	8.5905
5.06	8.61024
5.07	8.60695
5.08	8.63524
5.09	8.63162
5.1	8.63096
5.11	8.62109
5.12	8.61188
5.13	8.63294
5.14	8.62208
5.15	8.63228
5.16	8.61879
5.17	8.63425
5.18	8.6359
5.19	8.64215
5.2	8.64971
5.21	8.62406
5.22	8.66517
5.23	8.64938
5.24	8.65465
5.25	8.65564
5.26	8.64478
5.27	8.64675
5.28	8.65136
5.29	8.63623
5.3	8.64248
5.31	8.65958
5.32	8.65267
5.33	8.65728
5.34	8.65925
5.35	8.66057
5.36	8.63952
5.37	8.66517
5.38	8.66649
5.39	8.67406
5.4	8.64741
5.41	8.6609
5.42	8.67998
5.43	8.65794
5.44	8.65432
5.45	8.66057
5.46	8.69478
5.47	8.67307
5.48	8.66517
5.49	8.66517
5.5	8.653
5.51	8.65925
5.52	8.67932
5.53	8.67735
5.54	8.68721
5.55	8.6655
5.56	8.68195
5.57	8.68425
5.58	8.69939
5.59	8.69018
5.6	8.70925
5.61	8.6961
5.62	8.69379
5.63	8.68689
5.64	8.69675
5.65	8.70761
5.66	8.68689
5.67	8.70531
5.68	8.71616
5.69	8.68985
5.7	8.68623
5.71	8.67471
5.72	8.69675
5.73	8.69281
5.74	8.68557
5.75	8.68261
5.76	8.70794
5.77	8.73853
5.78	8.70695
5.79	8.7109
5.8	8.74577
5.81	8.7211
5.82	8.72768
5.83	8.71353
5.84	8.72932
5.85	8.72866
5.86	8.70794
5.87	8.71386
5.88	8.72208
5.89	8.70991
5.9	8.73294
5.91	8.71419
5.92	8.73294
5.93	8.71287
5.94	8.70893
5.95	8.74018
5.96	8.7484
5.97	8.72373
5.98	8.71485
5.99	8.71518
6	8.7484
6.01	8.71978
6.02	8.73426
6.03	8.74379
6.04	8.77669
6.05	8.7586
6.06	8.72603
6.07	8.72965
6.08	8.72439
6.09	8.72998
6.1	8.73656
6.11	8.75662
6.12	8.7688
6.13	8.75268
6.14	8.73327
6.15	8.74379
6.16	8.73458
6.17	8.77866
6.18	8.76156
6.19	8.74774
6.2	8.75366
6.21	8.76551
6.22	8.76353
6.23	8.76156
6.24	8.75333
6.25	8.77834
6.26	8.75958
6.27	8.75268
6.28	8.73557
6.29	8.76912
6.3	8.78031
6.31	8.79281
6.32	8.75399
6.33	8.76583
6.34	8.77176
6.35	8.78327
6.36	8.77834
6.37	8.77406
6.38	8.77702
6.39	8.76847
6.4	8.76386
6.41	8.75794
6.42	8.79741
6.43	8.77801
6.44	8.7859
6.45	8.79873
6.46	8.78524
6.47	8.7757
6.48	8.76583
6.49	8.78557
6.5	8.77406
6.51	8.77208
6.52	8.77472
6.53	8.7711
6.54	8.79281
6.55	8.7984
6.56	8.80597
6.57	8.81682
6.58	8.80202
6.59	8.79643
6.6	8.80663
6.61	8.80202
6.62	8.77866
6.63	8.81353
6.64	8.82998
6.65	8.78294
6.66	8.81748
6.67	8.79347
6.68	8.81123
6.69	8.81353
6.7	8.78952
6.71	8.80432
6.72	8.80991
6.73	8.80498
6.74	8.80531
6.75	8.81945
6.76	8.83327
6.77	8.82702
6.78	8.82307
6.79	8.81682
6.8	8.79412
6.81	8.79051
6.82	8.79511
6.83	8.81682
6.84	8.8211
6.85	8.83327
6.86	8.79741
6.87	8.8257
6.88	8.80761
6.89	8.79478
6.9	8.83195
6.91	8.83722
6.92	8.84939
6.93	8.82077
6.94	8.81978
6.95	8.7984
6.96	8.83195
6.97	8.8609
6.98	8.83557
6.99	8.83788
7	8.82176
7.01	8.8484
7.02	8.81814
7.03	8.81616
7.04	8.82505
7.05	8.85399
7.06	8.84906
7.07	8.82439
7.08	8.85136
7.09	8.85696
7.1	8.8257
7.11	8.83031
7.12	8.85202
7.13	8.85432
7.14	8.84807
7.15	8.8382
7.16	8.8563
7.17	8.84709
7.18	8.85367
7.19	8.84742
7.2	8.85926
7.21	8.87867
7.22	8.84577
7.23	8.85465
7.24	8.87603
7.25	8.86485
7.26	8.85531
7.27	8.84939
7.28	8.85531
7.29	8.84742
7.3	8.87834
7.31	8.87176
7.32	8.86748
7.33	8.86288
7.34	8.85136
7.35	8.86551
7.36	8.86649
7.37	8.84544
7.38	8.85498
7.39	8.84676
7.4	8.86781
7.41	8.88031
7.42	8.87307
7.43	8.86584
7.44	8.85103
7.45	8.8586
7.46	8.87965
7.47	8.85334
7.48	8.85761
7.49	8.88985
7.5	8.89742
7.51	8.86321
7.52	8.88064
7.53	8.89511
7.54	8.87044
7.55	8.87867
7.56	8.89281
7.57	8.88722
7.58	8.87834
7.59	8.88163
7.6	8.87571
7.61	8.86814
7.62	8.89709
7.63	8.88426
7.64	8.89413
7.65	8.87965
7.66	8.87077
7.67	8.88064
7.68	8.86748
7.69	8.88952
7.7	8.87077
7.71	8.87176
7.72	8.88557
7.73	8.89215
7.74	8.89347
7.75	8.89742
7.76	8.88919
7.77	8.879
7.78	8.89051
7.79	8.88755
7.8	8.91518
7.81	8.90761
7.82	8.89215
7.83	8.87406
7.84	8.90104
7.85	8.88294
7.86	8.90202
7.87	8.90498
7.88	8.91123
7.89	8.89577
7.9	8.8984
7.91	8.92439
7.92	8.91255
7.93	8.91748
7.94	8.89939
7.95	8.91189
7.96	8.90893
7.97	8.90564
7.98	8.91057
7.99	8.91189
8	8.88821
8.01	8.90761
8.02	8.92801
8.03	8.88163
8.04	8.89544
8.05	8.90959
8.06	8.94281
8.07	8.90432
8.08	8.90005
8.09	8.90663
8.1	8.90367
8.11	8.90564
8.12	8.90926
8.13	8.92538
8.14	8.9359
8.15	8.89084
8.16	8.92242
8.17	8.91354
8.18	8.92472
8.19	8.91518
8.2	8.92636
8.21	8.93919
8.22	8.92242
8.23	8.91025
8.24	8.90663
8.25	8.93459
8.26	8.93031
8.27	8.89347
8.28	8.88821
8.29	8.88886
8.3	8.90564
8.31	8.92011
8.32	8.93327
8.33	8.92176
8.34	8.9336
8.35	8.94446
8.36	8.93985
8.37	8.93229
8.38	8.91551
8.39	8.91617
8.4	8.89906
8.41	8.91354
8.42	8.93261
8.43	8.93196
8.44	8.92669
8.45	8.92636
8.46	8.9109
8.47	8.90136
8.48	8.92636
8.49	8.97472
8.5	8.96288
8.51	8.95268
8.52	8.93525
8.53	8.93031
8.54	8.94183
8.55	8.95334
8.56	8.93393
8.57	8.93821
8.58	8.94577
8.59	8.94117
8.6	8.93558
8.61	8.93985
8.62	8.92307
8.63	8.95498
8.64	8.93755
8.65	8.92011
8.66	8.93952
8.67	8.94906
8.68	8.95104
8.69	8.93294
8.7	8.94248
8.71	8.94643
8.72	8.94281
8.73	8.94314
8.74	8.9461
8.75	8.94314
8.76	8.97439
8.77	8.96485
8.78	8.96058
8.79	8.9734
8.8	8.95597
8.81	8.93492
8.82	8.94577
8.83	8.95268
8.84	8.96288
8.85	8.98196
8.86	8.96288
8.87	8.95696
8.88	8.9415
8.89	8.96387
8.9	8.9563
8.91	8.97768
8.92	8.97242
8.93	8.97143
8.94	8.95169
8.95	8.97308
8.96	8.9665
8.97	8.99117
8.98	8.9711
8.99	8.97637
9	8.96748
9.01	8.98656
9.02	8.96156
9.03	8.9609
9.04	8.96156
9.05	8.97275
9.06	8.97012
9.07	8.96946
9.08	8.96452
9.09	8.97933
9.1	8.9461
9.11	8.97406
9.12	8.99643
9.13	8.9813
9.14	8.98031
9.15	8.97505
9.16	8.97505
9.17	8.96551
9.18	8.97637
9.19	8.97012
9.2	8.96847
9.21	8.96321
9.22	8.96123
9.23	8.96354
9.24	8.97801
9.25	8.97933
9.26	8.98821
9.27	8.98887
9.28	8.97637
9.29	8.96715
9.3	8.98722
9.31	8.96321
9.32	8.9711
9.33	8.979
9.34	8.979
9.35	8.9961
9.36	8.9711
9.37	8.98887
9.38	9.00498
9.39	8.97571
9.4	8.99314
9.41	9.00038
9.42	9.02275
9.43	8.98887
9.44	8.98755
9.45	8.96979
9.46	8.98097
9.47	8.99544
9.48	9.00433
9.49	9.00071
9.5	9.00202
9.51	9.00137
9.52	8.9813
9.53	8.98985
9.54	8.97702
9.55	8.98459
9.56	9.00005
9.57	8.98459
9.58	8.96748
9.59	8.9813
9.6	9.00005
9.61	8.97966
9.62	8.99709
9.63	8.9961
9.64	8.97604
9.65	8.98492
9.66	9.01716
9.67	8.98525
9.68	8.98755
9.69	9.00071
9.7	8.99018
9.71	8.97505
9.72	8.9961
9.73	8.98919
9.74	8.98656
9.75	9.00367
9.76	8.97044
9.77	8.96123
9.78	8.97176
9.79	9.00038
9.8	9.00301
9.81	9.00005
9.82	8.9915
9.83	9.01354
9.84	9.01716
9.85	8.98097
9.86	8.99183
9.87	9.00235
9.88	9.00762
9.89	8.98755
9.9	9.00334
9.91	9.02341
9.92	9.00827
9.93	9.01551
9.94	8.979
9.95	8.99512
9.96	9.00301
9.97	9.03262
9.98	9.00564
9.99	9.01748
10	9.00301
10.01	8.99479
10.02	9.00498
10.03	9.01485
10.04	9.02538
10.05	9.02538
10.06	9.00038
10.07	9.00104
10.08	8.99183
10.09	8.99841
10.1	9.00433
10.11	9.01058
10.12	9.0063
10.13	9.01222
10.14	8.9915
10.15	9.01617
10.16	8.98327
10.17	8.99018
10.18	8.99347
10.19	8.99742
10.2	9.01683
10.21	9.03196
10.22	9.01683
10.23	9.01189
10.24	9.00268
10.25	9.01354
10.26	9.02505
10.27	9.00597
10.28	9.03854
10.29	9.03821
10.3	9.00005
10.31	9.01189
10.32	8.99906
10.33	9.02012
10.34	8.99906
10.35	9.01584
10.36	8.99972
10.37	9.0188
10.38	9.00926
10.39	9.03196
10.4	9.01354
10.41	9.00959
10.42	8.99709
10.43	9.02999
10.44	9.03788
10.45	9.0165
10.46	8.99808
10.47	9.01091
10.48	9.02604
10.49	9.02406
10.5	9.02012
10.51	9.03821
10.52	9.02045
10.53	9.01913
10.54	9.0188
10.55	9.03393
10.56	9.01814
10.57	9.02077
10.58	9.00762
10.59	9.01551
10.6	9.01222
10.61	9.00531
10.62	9.02242
10.63	9.02571
10.64	9.02505
10.65	9.02341
10.66	9.01485
10.67	9.01847
10.68	9.02012
10.69	9.01485
10.7	9.03459
10.71	9.03163
10.72	9.04216
10.73	9.01683
10.74	9.0211
10.75	9.02373
10.76	9.0211
10.77	9.05137
10.78	9.02735
10.79	9.02637
10.8	9.03821
10.81	9.02242
10.82	9.05828
10.83	9.05301
10.84	9.0165
10.85	9.04676
10.86	9.03887
10.87	9.06913
10.88	9.03821
10.89	9.01847
10.9	9.04775
10.91	9.04972
10.92	9.03591
10.93	9.04643
10.94	9.04906
10.95	9.07341
10.96	9.05959
10.97	9.029
10.98	9.03788
10.99	9.03821
11	9.05762
11.01	9.06387
11.02	9.03591
11.03	9.04545
11.04	9.07308
11.05	9.05762
11.06	9.06288
11.07	9.05466
11.08	9.05893
11.09	9.06387
11.1	9.02406
11.11	9.06453
11.12	9.04084
11.13	9.04249
11.14	9.03788
11.15	9.07374
11.16	9.02801
11.17	9.03393
11.18	9.02275
11.19	9.03262
11.2	9.04183
11.21	9.02571
11.22	9.04183
11.23	9.02308
11.24	9.01091
11.25	9.04347
11.26	9.02373
11.27	9.05696
11.28	9.02604
11.29	9.02768
11.3	9.04643
11.31	9.04446
11.32	9.03459
11.33	9.0392
11.34	9.03196
11.35	9.05235
11.36	9.04084
11.37	9.03821
11.38	9.03985
11.39	9.05104
11.4	9.04479
11.41	9.02012
11.42	9.04446
11.43	9.02867
11.44	9.054
11.45	9.03262
11.46	9.04512
11.47	9.04939
11.48	9.04051
11.49	9.05367
11.5	9.03295
11.51	9.04018
11.52	9.07045
11.53	9.05433
11.54	9.03854
11.55	9.04183
11.56	9.0563
11.57	9.0336
11.58	9.06584
11.59	9.0517
11.6	9.04216
11.61	9.06518
11.62	9.05531
11.63	9.04808
11.64	9.05531
11.65	9.04216
11.66	9.06387
11.67	9.06485
11.68	9.06485
11.69	9.05828
11.7	9.06321
11.71	9.07703
11.72	9.05597
11.73	9.05663
11.74	9.04906
11.75	9.03755
11.76	9.06255
11.77	9.0813
11.78	9.07538
11.79	9.07012
11.8	9.07505
11.81	9.08755
11.82	9.06979
11.83	9.04906
11.84	9.06485
11.85	9.06091
11.86	9.06781
11.87	9.08064
11.88	9.09347
11.89	9.07439
11.9	9.07176
11.91	9.06255
11.92	9.07242
11.93	9.07703
11.94	9.0711
11.95	9.0517
11.96	9.06156
11.97	9.07999
11.98	9.09446
11.99	9.08295
12	9.08032
12.01	9.06617
12.02	9.09051
12.03	9.07999
12.04	9.06979
12.05	9.08196
12.06	9.08788
12.07	9.08295
12.08	9.07571
12.09	9.07439
12.1	9.07538
12.11	9.06749
12.12	9.07834
12.13	9.05433
12.14	9.06979
12.15	9.07012
12.16	9.05137
12.17	9.0665
12.18	9.0711
12.19	9.08163
12.2	9.08788
12.21	9.06584
12.22	9.06913
12.23	9.05992
12.24	9.06189
12.25	9.0563
12.26	9.06485
12.27	9.06058
12.28	9.07735
12.29	9.06124
12.3	9.07045
12.31	9.09051
12.32	9.08295
12.33	9.09643
12.34	9.08262
12.35	9.07703
12.36	9.08624
12.37	9.07604
12.38	9.04841
12.39	9.08525
12.4	9.09742
12.41	9.10696
12.42	9.054
12.43	9.07604
12.44	9.07045
12.45	9.06716
12.46	9.06156
12.47	9.08032
12.48	9.08591
12.49	9.09117
12.5	9.06847
12.51	9.06979
12.52	9.06025
12.53	9.07933
12.54	9.09282
12.55	9.06288
12.56	9.0665
12.57	9.06749
12.58	9.07439
12.59	9.07768
12.6	9.07834
12.61	9.06814
12.62	9.09676
12.63	9.06156
12.64	9.06781
12.65	9.06749
12.66	9.05334
12.67	9.0586
12.68	9.06781
12.69	9.0461
12.7	9.05137
12.71	9.07176
12.72	9.05038
12.73	9.04413
12.74	9.04808
12.75	9.03459
12.76	9.04939
12.77	9.05564
12.78	9.06781
12.79	9.08229
12.8	9.07999
12.81	9.06222
12.82	9.06518
12.83	9.07867
12.84	9.05499
12.85	9.08755
12.86	9.0563
12.87	9.05663
12.88	9.05071
12.89	9.06617
12.9	9.07143
12.91	9.07275
12.92	9.09018
12.93	9.08032
12.94	9.09117
12.95	9.08196
12.96	9.07801
12.97	9.07012
12.98	9.09018
12.99	9.07209
13	9.06453
13.01	9.08393
13.02	9.09479
13.03	9.07834
13.04	9.07538
13.05	9.07768
13.06	9.06091
13.07	9.07966
13.08	9.06551
13.09	9.05499
13.1	9.06551
13.11	9.05992
13.12	9.08196
13.13	9.08426
13.14	9.08558
13.15	9.06913
13.16	9.08426
13.17	9.09446
13.18	9.10466
13.19	9.0836
13.2	9.07176
13.21	9.0813
13.22	9.0892
13.23	9.07308
13.24	9.06387
13.25	9.07406
13.26	9.08295
13.27	9.10104
13.28	9.07637
13.29	9.05597
13.3	9.08229
13.31	9.09874
13.32	9.08262
13.33	9.08196
13.34	9.10367
13.35	9.07703
13.36	9.07999
13.37	9.06847
13.38	9.1017
13.39	9.09117
13.4	9.09084
13.41	9.0767
13.42	9.0813
13.43	9.08393
13.44	9.06814
13.45	9.08985
13.46	9.08657
13.47	9.06847
13.48	9.05959
13.49	9.05466
13.5	9.10235
13.51	9.08657
13.52	9.08459
13.53	9.09709
13.54	9.0938
13.55	9.10696
13.56	9.08525
13.57	9.07834
13.58	9.07012
13.59	9.09742
13.6	9.08064
13.61	9.06518
13.62	9.08163
13.63	9.09314
13.64	9.1063
13.65	9.07834
13.66	9.08624
13.67	9.08163
13.68	9.08722
13.69	9.07143
13.7	9.07834
13.71	9.08689
13.72	9.07999
13.73	9.07966
13.74	9.09018
13.75	9.10367
13.76	9.07406
13.77	9.07703
13.78	9.10334
13.79	9.10071
13.8	9.09874
13.81	9.08657
13.82	9.10499
13.83	9.13032
13.84	9.10992
13.85	9.11091
13.86	9.0836
13.87	9.08525
13.88	9.1165
13.89	9.09775
13.9	9.10104
13.91	9.11716
13.92	9.11321
13.93	9.09939
13.94	9.10696
13.95	9.10367
13.96	9.08821
13.97	9.09775
13.98	9.10005
13.99	9.08525
14	9.07078
14.01	9.07571
14.02	9.10564
14.03	9.12374
14.04	9.10235
14.05	9.07637
14.06	9.0892
14.07	9.1063
14.08	9.0836
14.09	9.10104
14.1	9.10696
14.11	9.0892
14.12	9.0915
14.13	9.10433
14.14	9.09084
14.15	9.07999
14.16	9.10235
14.17	9.10334
14.18	9.08262
14.19	9.08985
14.2	9.08722
14.21	9.06749
14.22	9.08229
14.23	9.12078
14.24	9.08032
14.25	9.07703
14.26	9.0665
14.27	9.07735
14.28	9.09413
14.29	9.06321
14.3	9.08295
14.31	9.079
14.32	9.06617
14.33	9.07406
14.34	9.07703
14.35	9.06255
14.36	9.08985
14.37	9.10795
14.38	9.08985
14.39	9.09841
14.4	9.08657
14.41	9.0938
14.42	9.11025
14.43	9.12374
14.44	9.10532
14.45	9.07308
14.46	9.0642
14.47	9.07406
14.48	9.09479
14.49	9.07604
14.5	9.09742
14.51	9.09939
14.52	9.11058
14.53	9.09479
14.54	9.09413
14.55	9.10861
14.56	9.11518
14.57	9.12176
14.58	9.14907
14.59	9.1563
14.6	9.13426
14.61	9.14051
14.62	9.14479
14.63	9.13163
14.64	9.11025
14.65	9.11979
14.66	9.12801
14.67	9.15367
14.68	9.1267
14.69	9.14183
14.7	9.13393
14.71	9.13657
14.72	9.10235
14.73	9.10696
14.74	9.12505
14.75	9.12078
14.76	9.12637
14.77	9.12374
14.78	9.14709
14.79	9.10795
14.8	9.11683
14.81	9.13492
14.82	9.12176
14.83	9.11716
14.84	9.11814
14.85	9.11486
14.86	9.1142
14.87	9.10992
14.88	9.11222
14.89	9.12439
14.9	9.11814
14.91	9.10532
14.92	9.13064
14.93	9.11979
14.94	9.10532
14.95	9.10367
14.96	9.12176
14.97	9.10861
14.98	9.10532
14.99	9.10301
15	9.07604
15.01	9.10005
15.02	9.11979
15.03	9.09479
15.04	9.09874
15.05	9.11782
15.06	9.11749
15.07	9.12407
15.08	9.12867
15.09	9.11486
15.1	9.09479
15.11	9.0813
15.12	9.09084
15.13	9.08558
15.14	9.0915
15.15	9.11716
15.16	9.08196
15.17	9.10564
15.18	9.12505
15.19	9.10235
15.2	9.07999
15.21	9.08229
15.22	9.10038
15.23	9.08985
15.24	9.10433
15.25	9.11321
15.26	9.10959
15.27	9.09018
15.28	9.11124
15.29	9.10663
15.3	9.14051
15.31	9.11222
15.32	9.09282
15.33	9.07768
15.34	9.0961
15.35	9.11025
15.36	9.10038
15.37	9.09249
15.38	9.10466
15.39	9.12505
15.4	9.09479
15.41	9.12308
15.42	9.13163
15.43	9.11321
15.44	9.10959
15.45	9.10071
15.46	9.12768
15.47	9.12999
15.48	9.13755
15.49	9.12439
15.5	9.09347
15.51	9.08755
15.52	9.08492
15.53	9.12801
15.54	9.11551
15.55	9.10828
15.56	9.12933
15.57	9.10367
15.58	9.12341
15.59	9.10926
15.6	9.09874
15.61	9.10959
15.62	9.11847
15.63	9.09676
15.64	9.10893
15.65	9.10564
15.66	9.11551
15.67	9.11058
15.68	9.09413
15.69	9.09117
15.7	9.11518
15.71	9.09643
15.72	9.09545
15.73	9.10367
15.74	9.08887
15.75	9.06979
15.76	9.09282
15.77	9.12045
15.78	9.13854
15.79	9.11617
15.8	9.08163
15.81	9.08953
15.82	9.12966
15.83	9.08755
15.84	9.09972
15.85	9.0938
15.86	9.10301
15.87	9.12143
15.88	9.12308
15.89	9.13426
15.9	9.1142
15.91	9.12374
15.92	9.12012
15.93	9.12505
15.94	9.11157
15.95	9.10203
15.96	9.10861
15.97	9.09545
15.98	9.12078
15.99	9.10466
16	9.10367
16.01	9.12045
16.02	9.104
16.03	9.10235
16.04	9.0961
16.05	9.12012
16.06	9.12505
16.07	9.1063
16.08	9.12538
16.09	9.08262
16.1	9.08426
16.11	9.10466
16.12	9.11518
16.13	9.11354
16.14	9.08887
16.15	9.09347
16.16	9.09808
16.17	9.10729
16.18	9.08953
16.19	9.10959
16.2	9.10268
16.21	9.08492
16.22	9.09578
16.23	9.0915
16.24	9.10762
16.25	9.08953
16.26	9.10861
16.27	9.08755
16.28	9.07571
16.29	9.09545
16.3	9.09479
16.31	9.104
16.32	9.08953
16.33	9.11058
16.34	9.11551
16.35	9.09775
16.36	9.12538
16.37	9.09282
16.38	9.08262
16.39	9.12275
16.4	9.09183
16.41	9.09018
16.42	9.11091
16.43	9.09676
16.44	9.11354
16.45	9.10564
16.46	9.09282
16.47	9.09742
16.48	9.10137
16.49	9.11453
16.5	9.10203
16.51	9.104
16.52	9.08525
16.53	9.09314
16.54	9.09808
16.55	9.11387
16.56	9.11354
16.57	9.09676
16.58	9.11255
16.59	9.13196
16.6	9.1313
16.61	9.12143
16.62	9.08722
16.63	9.10367
16.64	9.10663
16.65	9.11025
16.66	9.11782
16.67	9.07966
16.68	9.10861
16.69	9.1017
16.7	9.10433
16.71	9.10861
16.72	9.09084
16.73	9.08788
16.74	9.09874
16.75	9.11551
16.76	9.10663
16.77	9.11683
16.78	9.08854
16.79	9.09084
16.8	9.08788
16.81	9.08689
16.82	9.10071
16.83	9.11124
16.84	9.10301
16.85	9.10762
16.86	9.12374
16.87	9.12834
16.88	9.13426
16.89	9.11584
16.9	9.10038
16.91	9.09314
16.92	9.11222
16.93	9.11814
16.94	9.11124
16.95	9.10203
16.96	9.08591
16.97	9.0836
16.98	9.11453
16.99	9.10828
17	9.06518
17.01	9.10663
17.02	9.10137
17.03	9.10762
17.04	9.11354
17.05	9.0915
17.06	9.10893
17.07	9.12308
17.08	9.08689
17.09	9.09479
17.1	9.12407
17.11	9.12374
17.12	9.12439
17.13	9.11847
17.14	9.14117
17.15	9.08262
17.16	9.11749
17.17	9.13032
17.18	9.09479
17.19	9.08393
17.2	9.12439
17.21	9.11189
17.22	9.104
17.23	9.10992
17.24	9.10828
17.25	9.10926
17.26	9.12834
17.27	9.12078
17.28	9.1267
17.29	9.10762
17.3	9.11617
17.31	9.12604
17.32	9.11157
17.33	9.11222
17.34	9.1188
17.35	9.11584
17.36	9.10466
17.37	9.12275
17.38	9.12538
17.39	9.13295
17.4	9.09479
17.41	9.11551
17.42	9.10071
17.43	9.11486
17.44	9.11486
17.45	9.12374
17.46	9.11222
17.47	9.12407
17.48	9.1313
17.49	9.11946
17.5	9.08985
17.51	9.11913
17.52	9.10005
17.53	9.12078
17.54	9.10597
17.55	9.10071
17.56	9.104
17.57	9.11025
17.58	9.10564
17.59	9.09314
17.6	9.10466
17.61	9.11157
17.62	9.10663
17.63	9.11321
17.64	9.12637
17.65	9.11222
17.66	9.10795
17.67	9.10861
17.68	9.10992
17.69	9.09709
17.7	9.11814
17.71	9.10762
17.72	9.12176
17.73	9.13722
17.74	9.104
17.75	9.10828
17.76	9.12966
17.77	9.11847
17.78	9.11814
17.79	9.1142
17.8	9.11551
17.81	9.11814
17.82	9.14972
17.83	9.10926
17.84	9.11749
17.85	9.12439
17.86	9.13788
17.87	9.11814
17.88	9.11814
17.89	9.10926
17.9	9.09972
17.91	9.10828
17.92	9.11058
17.93	9.11683
17.94	9.12242
17.95	9.11387
17.96	9.09479
17.97	9.11124
17.98	9.12078
17.99	9.1188
18	9.11913
18.01	9.11025
18.02	9.10564
18.03	9.12472
18.04	9.11058
18.05	9.12374
18.06	9.13459
18.07	9.12209
18.08	9.11946
18.09	9.12341
18.1	9.09578
18.11	9.10893
18.12	9.104
18.13	9.09249
18.14	9.10466
18.15	9.09742
18.16	9.12341
18.17	9.11913
18.18	9.11453
18.19	9.1188
18.2	9.09216
18.21	9.1017
18.22	9.11058
18.23	9.11288
18.24	9.07867
18.25	9.10696
18.26	9.13295
18.27	9.14676
18.28	9.12341
18.29	9.10696
18.3	9.10564
18.31	9.09249
18.32	9.09413
18.33	9.09282
18.34	9.08722
18.35	9.08426
18.36	9.1165
18.37	9.10466
18.38	9.10597
18.39	9.10663
18.4	9.09117
18.41	9.10597
18.42	9.10235
18.43	9.10005
18.44	9.08163
18.45	9.09446
18.46	9.09282
18.47	9.11354
18.48	9.09972
18.49	9.09841
18.5	9.12637
18.51	9.12637
18.52	9.11683
18.53	9.11288
18.54	9.10433
18.55	9.10597
18.56	9.10367
18.57	9.09512
18.58	9.08591
18.59	9.11157
18.6	9.11749
18.61	9.10729
18.62	9.11716
18.63	9.11946
18.64	9.14742
18.65	9.12012
18.66	9.1165
18.67	9.09512
18.68	9.10203
18.69	9.10696
18.7	9.1165
18.71	9.11814
18.72	9.10926
18.73	9.08328
18.74	9.07439
18.75	9.12143
18.76	9.12801
18.77	9.10005
18.78	9.10038
18.79	9.1438
18.8	9.1313
18.81	9.11782
18.82	9.1188
18.83	9.1165
18.84	9.11222
18.85	9.12012
18.86	9.10762
18.87	9.10137
18.88	9.11584
18.89	9.12604
18.9	9.12275
18.91	9.10005
18.92	9.11222
18.93	9.10663
18.94	9.09808
18.95	9.11749
18.96	9.1165
18.97	9.10893
18.98	9.09643
18.99	9.12209
19	9.09643
19.01	9.11321
19.02	9.11453
19.03	9.10893
19.04	9.1142
19.05	9.10433
19.06	9.11124
19.07	9.12538
19.08	9.13097
19.09	9.12242
19.1	9.10564
19.11	9.11486
19.12	9.12407
19.13	9.11157
19.14	9.09841
19.15	9.11354
19.16	9.1267
19.17	9.12834
19.18	9.12308
19.19	9.10433
19.2	9.10729
19.21	9.12439
19.22	9.09676
19.23	9.11913
19.24	9.09841
19.25	9.10597
19.26	9.09939
19.27	9.09446
19.28	9.12999
19.29	9.13788
19.3	9.07275
19.31	9.08262
19.32	9.12209
19.33	9.13262
19.34	9.10663
19.35	9.11058
19.36	9.13097
19.37	9.15038
19.38	9.12867
19.39	9.1188
19.4	9.12801
19.41	9.12045
19.42	9.13393
19.43	9.1017
19.44	9.10992
19.45	9.10959
19.46	9.12275
19.47	9.10301
19.48	9.09907
19.49	9.13755
19.5	9.12834
19.51	9.10696
19.52	9.10861
19.53	9.11288
19.54	9.09512
19.55	9.11913
19.56	9.10597
19.57	9.11255
19.58	9.12374
19.59	9.11453
19.6	9.12538
19.61	9.11255
19.62	9.1188
19.63	9.13295
19.64	9.09939
19.65	9.12439
19.66	9.10893
19.67	9.12275
19.68	9.11814
19.69	9.12078
19.7	9.10762
19.71	9.09545
19.72	9.12999
19.73	9.104
19.74	9.10597
19.75	9.09841
19.76	9.11288
19.77	9.1017
19.78	9.12012
19.79	9.11847
19.8	9.12176
19.81	9.10532
19.82	9.12242
19.83	9.10433
19.84	9.11913
19.85	9.10795
19.86	9.09545
19.87	9.1267
19.88	9.11321
19.89	9.09841
19.9	9.10828
19.91	9.10926
19.92	9.10893
19.93	9.11025
19.94	9.09939
19.95	9.11814
19.96	9.11288
19.97	9.11091
19.98	9.12111
19.99	9.129
20	9.11518
20.01	9.09545
20.02	9.10038
20.03	9.12472
20.04	9.12604
20.05	9.08591
20.06	9.08689
20.07	9.10235
20.08	9.11617
20.09	9.12176
20.1	9.11749
20.11	9.12571
20.12	9.09676
20.13	9.09643
20.14	9.08953
20.15	9.11288
20.16	9.09972
20.17	9.13163
20.18	9.13788
20.19	9.09545
20.2	9.11518
20.21	9.12834
20.22	9.11486
20.23	9.09874
20.24	9.11979
20.25	9.10959
20.26	9.10235
20.27	9.09972
20.28	9.09907
20.29	9.12768
20.3	9.11551
20.31	9.09808
20.32	9.10729
20.33	9.10137
20.34	9.09742
20.35	9.10301
20.36	9.10301
20.37	9.10532
20.38	9.07999
20.39	9.10729
20.4	9.11716
20.41	9.11749
20.42	9.14315
20.43	9.13229
20.44	9.12045
20.45	9.11124
20.46	9.10137
20.47	9.13722
20.48	9.12209
20.49	9.09643
20.5	9.11814
20.51	9.09413
20.52	9.11518
20.53	9.13525
20.54	9.10597
20.55	9.10861
20.56	9.11617
20.57	9.13657
20.58	9.11189
20.59	9.11551
20.6	9.13262
20.61	9.12703
20.62	9.12341
20.63	9.11979
20.64	9.12604
20.65	9.12637
20.66	9.10268
20.67	9.12242
20.68	9.12538
20.69	9.12407
20.7	9.09282
20.71	9.11617
20.72	9.12768
20.73	9.13426
20.74	9.1165
20.75	9.08821
20.76	9.11486
20.77	9.10893
20.78	9.11387
20.79	9.11189
20.8	9.10729
20.81	9.12078
20.82	9.12374
20.83	9.13163
20.84	9.14808
20.85	9.09874
20.86	9.11124
20.87	9.1188
20.88	9.11255
20.89	9.10104
20.9	9.12143
20.91	9.10005
20.92	9.10367
20.93	9.11157
20.94	9.11782
20.95	9.12703
20.96	9.10926
20.97	9.1017
20.98	9.12472
20.99	9.1142
21	9.12407
21.01	9.12374
21.02	9.11814
21.03	9.10861
21.04	9.1165
21.05	9.10532
21.06	9.10926
21.07	9.10301
21.08	9.09314
21.09	9.10499
21.1	9.11288
21.11	9.09479
21.12	9.11749
21.13	9.12045
21.14	9.12143
21.15	9.12801
21.16	9.11979
21.17	9.12374
21.18	9.10203
21.19	9.12012
21.2	9.12045
21.21	9.11025
21.22	9.11946
21.23	9.1188
21.24	9.11979
21.25	9.11716
21.26	9.11157
21.27	9.11189
21.28	9.10795
21.29	9.09413
21.3	9.07637
21.31	9.12209
21.32	9.12143
21.33	9.10071
21.34	9.09314
21.35	9.10861
21.36	9.12176
21.37	9.11288
21.38	9.10071
21.39	9.11749
21.4	9.0915
21.41	9.10433
21.42	9.10104
21.43	9.10893
21.44	9.10334
21.45	9.1063
21.46	9.11716
21.47	9.11387
21.48	9.11091
21.49	9.11486
21.5	9.09907
21.51	9.12242
21.52	9.09282
21.53	9.09972
21.54	9.10433
21.55	9.11453
21.56	9.11222
21.57	9.1267
21.58	9.13032
21.59	9.11749
21.6	9.11453
21.61	9.12143
21.62	9.12209
21.63	9.12834
21.64	9.12078
21.65	9.11124
21.66	9.11617
21.67	9.08558
21.68	9.14841
21.69	9.129
21.7	9.12834
21.71	9.11913
21.72	9.10433
21.73	9.1369
21.74	9.14446
21.75	9.11058
21.76	9.10301
21.77	9.11716
21.78	9.10137
21.79	9.11321
21.8	9.11288
21.81	9.1017
21.82	9.11782
21.83	9.11486
21.84	9.11157
21.85	9.10696
21.86	9.11979
21.87	9.10268
21.88	9.12275
21.89	9.12637
21.9	9.12505
21.91	9.13229
21.92	9.12703
21.93	9.12078
21.94	9.12045
21.95	9.12308
21.96	9.11025
21.97	9.09216
21.98	9.10071
21.99	9.10762
22	9.11387
22.01	9.14545
22.02	9.12045
22.03	9.12703
22.04	9.10301
22.05	9.10235
22.06	9.12439
22.07	9.11387
22.08	9.11321
22.09	9.13328
22.1	9.10828
22.11	9.12176
22.12	9.13393
22.13	9.14315
22.14	9.12966
22.15	9.13591
22.16	9.1438
22.17	9.12308
22.18	9.12242
22.19	9.11913
22.2	9.12341
22.21	9.10663
22.22	9.1063
22.23	9.11387
22.24	9.12012
22.25	9.12275
22.26	9.11255
22.27	9.13657
22.28	9.11518
22.29	9.14216
22.3	9.10959
22.31	9.09117
22.32	9.11716
22.33	9.12966
22.34	9.09479
22.35	9.11584
22.36	9.11124
22.37	9.10203
22.38	9.09972
22.39	9.10334
22.4	9.11551
22.41	9.13064
22.42	9.10795
22.43	9.10367
22.44	9.09742
22.45	9.11255
22.46	9.11288
22.47	9.10926
22.48	9.11189
22.49	9.09446
22.5	9.07571
22.51	9.10301
22.52	9.11091
22.53	9.12111
22.54	9.09578
22.55	9.07768
22.56	9.1063
22.57	9.09446
22.58	9.11124
22.59	9.1267
22.6	9.12472
22.61	9.11354
22.62	9.12407
22.63	9.09874
22.64	9.12472
22.65	9.08624
22.66	9.11518
22.67	9.10038
22.68	9.1142
22.69	9.13393
22.7	9.10532
22.71	9.12933
22.72	9.11486
22.73	9.12736
22.74	9.14183
22.75	9.12308
22.76	9.12999
22.77	9.11716
22.78	9.10828
22.79	9.11189
22.8	9.11979
22.81	9.12374
22.82	9.1392
22.83	9.12308
22.84	9.11617
22.85	9.12439
22.86	9.11222
22.87	9.09479
22.88	9.11486
22.89	9.11222
22.9	9.1142
22.91	9.11058
22.92	9.11124
22.93	9.10926
22.94	9.12341
22.95	9.13887
22.96	9.12768
22.97	9.14018
22.98	9.11321
22.99	9.11749
23	9.09282
23.01	9.11946
23.02	9.12308
23.03	9.1165
23.04	9.12571
23.05	9.10071
23.06	9.08689
23.07	9.12637
23.08	9.11189
23.09	9.10729
23.1	9.11387
23.11	9.10861
23.12	9.12176
23.13	9.10137
23.14	9.0961
23.15	9.11025
23.16	9.08887
23.17	9.1017
23.18	9.09578
23.19	9.12242
23.2	9.10137
23.21	9.10564
23.22	9.08328
23.23	9.11946
23.24	9.11979
23.25	9.10071
23.26	9.12209
23.27	9.13986
23.28	9.10729
23.29	9.104
23.3	9.09709
23.31	9.09117
23.32	9.11255
23.33	9.10268
23.34	9.0938
23.35	9.09216
23.36	9.12176
23.37	9.11518
23.38	9.08525
23.39	9.09314
23.4	9.09709
23.41	9.11453
23.42	9.12374
23.43	9.12736
23.44	9.10795
23.45	9.10137
23.46	9.11814
23.47	9.11683
23.48	9.09545
23.49	9.11814
23.5	9.12078
23.51	9.11157
23.52	9.11584
23.53	9.11814
23.54	9.11255
23.55	9.10597
23.56	9.12078
23.57	9.09841
23.58	9.12834
23.59	9.13262
23.6	9.1369
23.61	9.12111
23.62	9.12275
23.63	9.08985
23.64	9.12111
23.65	9.11486
23.66	9.10959
23.67	9.09545
23.68	9.12999
23.69	9.12407
23.7	9.12834
23.71	9.09808
23.72	9.10992
23.73	9.10663
23.74	9.10597
23.75	9.08953
23.76	9.10038
23.77	9.10663
23.78	9.10367
23.79	9.1188
23.8	9.10499
23.81	9.11453
23.82	9.09578
23.83	9.11222
23.84	9.11091
23.85	9.11453
23.86	9.10959
23.87	9.10532
23.88	9.11091
23.89	9.08788
23.9	9.11683
23.91	9.11157
23.92	9.10532
23.93	9.10729
23.94	9.10861
23.95	9.11584
23.96	9.12176
23.97	9.11124
23.98	9.10235
23.99	9.10828
24	9.09545
24.01	9.07735
24.02	9.10597
24.03	9.11387
24.04	9.11288
24.05	9.09446
24.06	9.11189
24.07	9.10038
24.08	9.13393
24.09	9.12867
24.1	9.11979
24.11	9.09282
24.12	9.08854
24.13	9.09972
24.14	9.07801
24.15	9.10071
24.16	9.10268
24.17	9.10828
24.18	9.11584
24.19	9.07571
24.2	9.1165
24.21	9.12242
24.22	9.12341
24.23	9.09578
24.24	9.08755
24.25	9.09347
24.26	9.10762
24.27	9.12078
24.28	9.11979
24.29	9.08887
24.3	9.08821
24.31	9.11124
24.32	9.13361
24.33	9.10828
24.34	9.10532
24.35	9.15762
24.36	9.11354
24.37	9.09117
24.38	9.11321
24.39	9.09084
24.4	9.09643
24.41	9.10861
24.42	9.10696
24.43	9.11189
24.44	9.10959
24.45	9.10696
24.46	9.08755
24.47	9.10301
24.48	9.11716
24.49	9.13064
24.5	9.11913
24.51	9.11091
24.52	9.08591
24.53	9.10696
24.54	9.10762
24.55	9.11584
24.56	9.11255
24.57	9.10235
24.58	9.12801
24.59	9.09643
24.6	9.11354
24.61	9.1017
24.62	9.12933
24.63	9.11189
24.64	9.12933
24.65	9.13032
24.66	9.10268
24.67	9.1313
24.68	9.11091
24.69	9.09972
24.7	9.12472
24.71	9.12966
24.72	9.09841
24.73	9.12045
24.74	9.10564
24.75	9.10795
24.76	9.10795
24.77	9.1142
24.78	9.09282
24.79	9.08953
24.8	9.09084
24.81	9.1165
24.82	9.11321
24.83	9.11387
24.84	9.10597
24.85	9.11683
24.86	9.15071
24.87	9.12242
24.88	9.13262
24.89	9.13854
24.9	9.11189
24.91	9.11157
24.92	9.13722
24.93	9.11354
24.94	9.11354
24.95	9.10564
24.96	9.13492
24.97	9.13854
24.98	9.11782
24.99	9.1415
25	9.11913
25.01	9.12078
25.02	9.15499
25.03	9.14611
25.04	9.12768
25.05	9.10235
25.06	9.14249
25.07	9.15104
25.08	9.11683
25.09	9.12176
25.1	9.12341
25.11	9.11518
25.12	9.11716
25.13	9.12933
25.14	9.11913
25.15	9.12111
25.16	9.10959
25.17	9.13229
25.18	9.13295
25.19	9.11551
25.2	9.12374
25.21	9.09413
25.22	9.10729
25.23	9.08887
25.24	9.11189
25.25	9.10334
25.26	9.09183
25.27	9.10597
25.28	9.10992
25.29	9.11913
25.3	9.11749
25.31	9.10301
25.32	9.09939
25.33	9.09347
25.34	9.09775
25.35	9.10499
25.36	9.11814
25.37	9.10828
25.38	9.12374
25.39	9.11321
25.4	9.10005
25.41	9.09841
25.42	9.10663
25.43	9.10104
25.44	9.11486
25.45	9.11913
25.46	9.09183
25.47	9.11321
25.48	9.10268
25.49	9.12078
25.5	9.11617
25.51	9.11091
25.52	9.11979
25.53	9.11518
25.54	9.13459
25.55	9.13953
25.56	9.15301
25.57	9.11946
25.58	9.12867
25.59	9.11913
25.6	9.11551
25.61	9.12999
25.62	9.12374
25.63	9.14051
25.64	9.14084
25.65	9.15005
25.66	9.12604
25.67	9.14578
25.68	9.15203
25.69	9.15301
25.7	9.13361
25.71	9.13295
25.72	9.11157
25.73	9.11749
25.74	9.13163
25.75	9.1438
25.76	9.13163
25.77	9.12012
25.78	9.11091
25.79	9.10301
25.8	9.12374
25.81	9.1188
25.82	9.11387
25.83	9.10334
25.84	9.09742
25.85	9.10203
25.86	9.08064
25.87	9.09413
25.88	9.10597
25.89	9.1142
25.9	9.10038
25.91	9.07999
25.92	9.0767
25.93	9.06255
25.94	9.08426
25.95	9.10893
25.96	9.10696
25.97	9.12143
25.98	9.12012
25.99	9.0961
26	9.10235
26.01	9.10301
26.02	9.08624
26.03	9.11321
26.04	9.12045
26.05	9.12078
26.06	9.11453
26.07	9.10433
26.08	9.12834
26.09	9.1165
26.1	9.12538
26.11	9.13032
26.12	9.11617
26.13	9.09479
26.14	9.10005
26.15	9.11847
26.16	9.10893
26.17	9.10038
26.18	9.09907
26.19	9.12045
26.2	9.12538
26.21	9.13229
26.22	9.11189
26.23	9.11913
26.24	9.11288
26.25	9.11486
26.26	9.12736
26.27	9.12143
26.28	9.10466
26.29	9.10696
26.3	9.11551
26.31	9.1313
26.32	9.1392
26.33	9.12736
26.34	9.13525
26.35	9.12472
26.36	9.12308
26.37	9.13295
26.38	9.13755
26.39	9.1142
26.4	9.11814
26.41	9.14545
26.42	9.11124
26.43	9.1142
26.44	9.10071
26.45	9.12308
26.46	9.13492
26.47	9.11979
26.48	9.15499
26.49	9.11847
26.5	9.10828
26.51	9.11354
26.52	9.11979
26.53	9.11518
26.54	9.11453
26.55	9.11683
26.56	9.0892
26.57	9.10301
26.58	9.08887
26.59	9.13953
26.6	9.13097
26.61	9.08459
26.62	9.07933
26.63	9.12768
26.64	9.09939
26.65	9.13097
26.66	9.11157
26.67	9.10203
26.68	9.09939
26.69	9.11255
26.7	9.11453
26.71	9.09249
26.72	9.09249
26.73	9.0961
26.74	9.10564
26.75	9.13393
26.76	9.14512
26.77	9.11189
26.78	9.11518
26.79	9.12439
26.8	9.11255
26.81	9.12407
26.82	9.09676
26.83	9.11486
26.84	9.1142
26.85	9.1063
26.86	9.10597
26.87	9.11518
26.88	9.15005
26.89	9.13821
26.9	9.08064
26.91	9.09413
26.92	9.11321
26.93	9.09676
26.94	9.10367
26.95	9.079
26.96	9.09972
26.97	9.10038
26.98	9.11025
26.99	9.12341
27	9.12637
27.01	9.11486
27.02	9.10532
27.03	9.10926
27.04	9.14084
27.05	9.12045
27.06	9.12834
27.07	9.13229
27.08	9.09775
27.09	9.10005
27.1	9.09216
27.11	9.10663
27.12	9.11189
27.13	9.09808
27.14	9.09347
27.15	9.07604
27.16	9.11222
27.17	9.11354
27.18	9.1165
27.19	9.12933
27.2	9.12143
27.21	9.08854
27.22	9.11288
27.23	9.104
27.24	9.104
27.25	9.09216
27.26	9.11716
27.27	9.10959
27.28	9.09479
27.29	9.11058
27.3	9.11979
27.31	9.10729
27.32	9.10334
27.33	9.09742
27.34	9.10071
27.35	9.11913
27.36	9.10762
27.37	9.10499
27.38	9.13361
27.39	9.12176
27.4	9.09742
27.41	9.09709
27.42	9.09643
27.43	9.08591
27.44	9.08854
27.45	9.10301
27.46	9.11354
27.47	9.09578
27.48	9.10268
27.49	9.10433
27.5	9.12505
27.51	9.11354
27.52	9.09183
27.53	9.09643
27.54	9.12078
27.55	9.12209
27.56	9.10268
27.57	9.104
27.58	9.09907
27.59	9.10038
27.6	9.1142
27.61	9.11058
27.62	9.10564
27.63	9.10532
27.64	9.12111
27.65	9.12045
27.66	9.09775
27.67	9.10532
27.68	9.11321
27.69	9.07078
27.7	9.11847
27.71	9.11222
27.72	9.07999
27.73	9.09874
27.74	9.09512
27.75	9.09939
27.76	9.07538
27.77	9.09972
27.78	9.08788
27.79	9.0938
27.8	9.10564
27.81	9.10564
27.82	9.09183
27.83	9.09808
27.84	9.09051
27.85	9.11255
27.86	9.0836
27.87	9.10499
27.88	9.11255
27.89	9.14578
27.9	9.09907
27.91	9.09907
27.92	9.07768
27.93	9.11913
27.94	9.13229
27.95	9.12275
27.96	9.09874
27.97	9.09841
27.98	9.0892
27.99	9.08525
28	9.1063
28.01	9.11255
28.02	9.08591
28.03	9.08722
28.04	9.09874
28.05	9.12374
28.06	9.0892
28.07	9.09413
28.08	9.1188
28.09	9.12012
28.1	9.08788
28.11	9.09578
28.12	9.10268
28.13	9.11847
28.14	9.10762
28.15	9.12834
28.16	9.13492
28.17	9.11716
28.18	9.12242
28.19	9.07867
28.2	9.08196
28.21	9.09446
28.22	9.10959
28.23	9.0892
28.24	9.11518
28.25	9.09216
28.26	9.11091
28.27	9.13229
28.28	9.12933
28.29	9.11913
28.3	9.09808
28.31	9.08328
28.32	9.08196
28.33	9.11913
28.34	9.11025
28.35	9.11091
28.36	9.09939
28.37	9.12407
28.38	9.12439
28.39	9.11124
28.4	9.11749
28.41	9.11486
28.42	9.13492
28.43	9.11749
28.44	9.10729
28.45	9.10729
28.46	9.09545
28.47	9.13032
28.48	9.13262
28.49	9.10893
28.5	9.14643
28.51	9.12012
28.52	9.12143
28.53	9.10301
28.54	9.10137
28.55	9.10564
28.56	9.09018
28.57	9.1063
28.58	9.10532
28.59	9.07341
28.6	9.11584
28.61	9.14347
28.62	9.11486
28.63	9.09216
28.64	9.10301
28.65	9.1188
28.66	9.09874
28.67	9.13032
28.68	9.11255
28.69	9.12407
28.7	9.10564
28.71	9.08032
28.72	9.12111
28.73	9.13032
28.74	9.11584
28.75	9.11189
28.76	9.11847
28.77	9.12242
28.78	9.1142
28.79	9.1188
28.8	9.07439
28.81	9.10203
28.82	9.11387
28.83	9.10795
28.84	9.11749
28.85	9.11617
28.86	9.104
28.87	9.11189
28.88	9.09972
28.89	9.11058
28.9	9.13788
28.91	9.11288
28.92	9.11321
28.93	9.10038
28.94	9.09775
28.95	9.11058
28.96	9.1313
28.97	9.11387
28.98	9.10137
28.99	9.10861
29	9.10104
29.01	9.1063
29.02	9.13163
29.03	9.08624
29.04	9.09939
29.05	9.11814
29.06	9.12604
29.07	9.11683
29.08	9.10564
29.09	9.13064
29.1	9.12571
29.11	9.10926
29.12	9.10926
29.13	9.10564
29.14	9.10893
29.15	9.10367
29.16	9.09676
29.17	9.09479
29.18	9.11979
29.19	9.09808
29.2	9.10466
29.21	9.09841
29.22	9.10038
29.23	9.09841
29.24	9.10268
29.25	9.09545
29.26	9.12341
29.27	9.11189
29.28	9.09512
29.29	9.11157
29.3	9.07966
29.31	9.10828
29.32	9.09018
29.33	9.09282
29.34	9.09742
29.35	9.10071
29.36	9.09841
29.37	9.09446
29.38	9.11157
29.39	9.10301
29.4	9.09282
29.41	9.10795
29.42	9.09578
29.43	9.11288
29.44	9.12209
29.45	9.12407
29.46	9.14216
29.47	9.13097
29.48	9.12604
29.49	9.10926
29.5	9.10038
29.51	9.13097
29.52	9.11486
29.53	9.09972
29.54	9.10959
29.55	9.07801
29.56	9.10795
29.57	9.11716
29.58	9.09709
29.59	9.10893
29.6	9.07637
29.61	9.1142
29.62	9.10268
29.63	9.13196
29.64	9.10334
29.65	9.10235
29.66	9.10038
29.67	9.11354
29.68	9.0938
29.69	9.09808
29.7	9.09545
29.71	9.10268
29.72	9.09841
29.73	9.10532
29.74	9.11058
29.75	9.12966
29.76	9.09972
29.77	9.08229
29.78	9.09907
29.79	9.12407
29.8	9.12439
29.81	9.10893
29.82	9.10959
29.83	9.12209
29.84	9.08624
29.85	9.09709
29.86	9.12045
29.87	9.08426
29.88	9.08591
29.89	9.1188
29.9	9.09676
29.91	9.10104
29.92	9.09446
29.93	9.13591
29.94	9.12505
29.95	9.10828
29.96	9.11387
29.97	9.10663
29.98	9.11617
29.99	9.1267
30	9.09479
