"BIO-KINE ASCII FILE"
"_COMMENT"	"MOS-500 Spectrometer"
"_COMMENT"	"Kinetics measurement"
"_COMMENT"	"Y Unit : Volt,  X Unit : s"
"_COMMENT"	"Excitation wavelength : 380 nm"
"_COMMENT"	"Fentes bandwidth =  1 nm"
"_COMMENT"	"HV= 1000V"
"_COMMENT"	"Timebase  1 =  .01 s   5001 pts"
"_SFM"	"SFM-400 /S  Advanced mode"
"_SFM"	"Ratio : S1: 2.5, S2: 0, S3: 0, S4: 1"
"_SFM"	"Content : S1: , S2: , S3: , S4:"
"_SFM"	"Concentration : S1: , S2: , S3: , S4:"
"_SFM"	"Total volume : 209 µl  Flow : 3.5 mL/s"
"_SFM"	"Acquisition start :  10 ms before stop"
"_SFM"	"cuve=FC-15, s1=10 ml , s2=10 ml , s3=10 ml , s4=1.9 ml"
"_UNITX"	"s"
"_UNITY"	"Volt"
"_DELTAX"	0
"_DATA"
1e-300	4.50223
0.01	4.52033
0.02	4.5098
0.03	4.64862
0.04	4.73612
0.05	4.7381
0.06	4.81277
0.07	4.81968
0.08	4.7802
0.09	4.84106
0.1	4.84534
0.11	4.8631
0.12	4.8552
0.13	4.82066
0.14	4.8835
0.15	4.86771
0.16	4.86836
0.17	4.8529
0.18	4.85553
0.19	4.85981
0.2	4.86343
0.21	4.83448
0.22	4.88053
0.23	4.88382
0.24	4.90356
0.25	4.91475
0.26	4.8983
0.27	4.91409
0.28	4.90422
0.29	4.86343
0.3	4.90455
0.31	4.92856
0.32	4.90356
0.33	4.8654
0.34	4.87988
0.35	4.86803
0.36	4.88942
0.37	4.85784
0.38	4.84961
0.39	4.88613
0.4	4.8404
0.41	4.89994
0.42	4.88481
0.43	4.89271
0.44	4.86211
0.45	4.87396
0.46	4.88942
0.47	4.85422
0.48	4.84435
0.49	4.87527
0.5	4.87955
0.51	4.85126
0.52	4.82659
0.53	4.86145
0.54	4.90586
0.55	4.86178
0.56	4.87132
0.57	4.88942
0.58	4.88646
0.59	4.81902
0.6	4.87659
0.61	4.89665
0.62	4.8427
0.63	4.85652
0.64	4.86113
0.65	4.82362
0.66	4.85882
0.67	4.88481
0.68	4.87428
0.69	4.87461
0.7	4.85422
0.71	4.8358
0.72	4.85159
0.73	4.88415
0.74	4.84994
0.75	4.87461
0.76	4.83645
0.77	4.79106
0.78	4.78514
0.79	4.8108
0.8	4.82955
0.81	4.82593
0.82	4.83284
0.83	4.84435
0.84	4.88415
0.85	4.83119
0.86	4.82034
0.87	4.81803
0.88	4.80619
0.89	4.78251
0.9	4.81705
0.91	4.81343
0.92	4.79533
0.93	4.8154
0.94	4.81836
0.95	4.79369
0.96	4.77132
0.97	4.81803
0.98	4.82066
0.99	4.81606
1	4.84073
1.01	4.83316
1.02	4.85586
1.03	4.81737
1.04	4.81803
1.05	4.79994
1.06	4.75093
1.07	4.75093
1.08	4.8154
1.09	4.81376
1.1	4.80882
1.11	4.83514
1.12	4.76145
1.13	4.79994
1.14	4.81244
1.15	4.74533
1.16	4.78119
1.17	4.78086
1.18	4.76211
1.19	4.76211
1.2	4.78678
1.21	4.76836
1.22	4.75356
1.23	4.7552
1.24	4.78185
1.25	4.81474
1.26	4.79731
1.27	4.75882
1.28	4.79764
1.29	4.79468
1.3	4.78547
1.31	4.76507
1.32	4.7529
1.33	4.78382
1.34	4.76639
1.35	4.78448
1.36	4.8006
1.37	4.81014
1.38	4.77132
1.39	4.78843
1.4	4.74468
1.41	4.72921
1.42	4.75421
1.43	4.77527
1.44	4.7802
1.45	4.75652
1.46	4.79139
1.47	4.7904
1.48	4.78974
1.49	4.73382
1.5	4.7427
1.51	4.74764
1.52	4.78283
1.53	4.76408
1.54	4.77954
1.55	4.77362
1.56	4.71507
1.57	4.73678
1.58	4.74862
1.59	4.75619
1.6	4.73645
1.61	4.71244
1.62	4.71967
1.63	4.72099
1.64	4.73481
1.65	4.74336
1.66	4.75389
1.67	4.75191
1.68	4.7654
1.69	4.72461
1.7	4.71869
1.71	4.72592
1.72	4.74731
1.73	4.74632
1.74	4.78448
1.75	4.75323
1.76	4.71803
1.77	4.67888
1.78	4.71112
1.79	4.68184
1.8	4.69731
1.81	4.73842
1.82	4.72
1.83	4.72
1.84	4.67395
1.85	4.66901
1.86	4.73941
1.87	4.75718
1.88	4.72987
1.89	4.73612
1.9	4.72362
1.91	4.77362
1.92	4.73908
1.93	4.7381
1.94	4.73941
1.95	4.73053
1.96	4.69007
1.97	4.69369
1.98	4.71573
1.99	4.72198
2	4.7381
2.01	4.67296
2.02	4.70915
2.03	4.70948
2.04	4.70092
2.05	4.70586
2.06	4.69237
2.07	4.70388
2.08	4.71178
2.09	4.71507
2.1	4.70191
2.11	4.64237
2.12	4.6927
2.13	4.72362
2.14	4.74764
2.15	4.65454
2.16	4.66046
2.17	4.67
2.18	4.66901
2.19	4.70454
2.2	4.68579
2.21	4.67691
2.22	4.69928
2.23	4.68941
2.24	4.68184
2.25	4.66079
2.26	4.7029
2.27	4.68086
2.28	4.72527
2.29	4.70224
2.3	4.69402
2.31	4.67592
2.32	4.6904
2.33	4.69073
2.34	4.66046
2.35	4.67329
2.36	4.6779
2.37	4.66507
2.38	4.69698
2.39	4.67954
2.4	4.61145
2.41	4.66803
2.42	4.64401
2.43	4.64928
2.44	4.67428
2.45	4.70619
2.46	4.67329
2.47	4.65651
2.48	4.64138
2.49	4.67362
2.5	4.63151
2.51	4.66211
2.52	4.68415
2.53	4.65684
2.54	4.61079
2.55	4.63711
2.56	4.62263
2.57	4.6325
2.58	4.66737
2.59	4.67428
2.6	4.63743
2.61	4.60816
2.62	4.59072
2.63	4.62395
2.64	4.67395
2.65	4.65322
2.66	4.63546
2.67	4.645
2.68	4.65125
2.69	4.63184
2.7	4.6598
2.71	4.61934
2.72	4.60947
2.73	4.65322
2.74	4.6723
2.75	4.64895
2.76	4.64434
2.77	4.63645
2.78	4.63086
2.79	4.62296
2.8	4.60947
2.81	4.59763
2.82	4.60191
2.83	4.60454
2.84	4.59533
2.85	4.65882
2.86	4.58118
2.87	4.59632
2.88	4.65257
2.89	4.65454
2.9	4.61441
2.91	4.56934
2.92	4.62362
2.93	4.62197
2.94	4.62691
2.95	4.59829
2.96	4.62362
2.97	4.59138
2.98	4.57493
2.99	4.595
3	4.5598
3.01	4.61441
3.02	4.62395
3.03	4.58809
3.04	4.62888
3.05	4.61671
3.06	4.61737
3.07	4.63349
3.08	4.62625
3.09	4.61375
3.1	4.61145
3.11	4.57329
3.12	4.59993
3.13	4.60355
3.14	4.61145
3.15	4.62921
3.16	4.58217
3.17	4.60322
3.18	4.58645
3.19	4.61901
3.2	4.61342
3.21	4.59862
3.22	4.62428
3.23	4.60717
3.24	4.57789
3.25	4.58316
3.26	4.5871
3.27	4.56408
3.28	4.57822
3.29	4.57526
3.3	4.59632
3.31	4.55684
3.32	4.56605
3.33	4.57362
3.34	4.59632
3.35	4.57756
3.36	4.58974
3.37	4.5677
3.38	4.60355
3.39	4.58513
3.4	4.56835
3.41	4.5825
3.42	4.57362
3.43	4.55849
3.44	4.56079
3.45	4.55355
3.46	4.54895
3.47	4.5848
3.48	4.57625
3.49	4.55487
3.5	4.59039
3.51	4.54598
3.52	4.5246
3.53	4.58743
3.54	4.58974
3.55	4.59467
3.56	4.57691
3.57	4.56243
3.58	4.56737
3.59	4.58349
3.6	4.56408
3.61	4.59928
3.62	4.56408
3.63	4.58678
3.64	4.5848
3.65	4.56441
3.66	4.56112
3.67	4.58217
3.68	4.5621
3.69	4.56901
3.7	4.56835
3.71	4.55816
3.72	4.52065
3.73	4.53414
3.74	4.58085
3.75	4.55223
3.76	4.56375
3.77	4.56868
3.78	4.54927
3.79	4.57888
3.8	4.56441
3.81	4.54401
3.82	4.55125
3.83	4.57625
3.84	4.54862
3.85	4.55487
3.86	4.56309
3.87	4.57033
3.88	4.5427
3.89	4.54401
3.9	4.52098
3.91	4.51572
3.92	4.55421
3.93	4.5575
3.94	4.56046
3.95	4.56605
3.96	4.54401
3.97	4.52723
3.98	4.56276
3.99	4.54993
4	4.56802
4.01	4.55059
4.02	4.52855
4.03	4.51737
4.04	4.52131
4.05	4.51901
4.06	4.55322
4.07	4.50223
4.08	4.54697
4.09	4.52987
4.1	4.48644
4.11	4.49039
4.12	4.51375
4.13	4.4894
4.14	4.46802
4.15	4.50289
4.16	4.53579
4.17	4.54138
4.18	4.52197
4.19	4.49335
4.2	4.50848
4.21	4.51079
4.22	4.48447
4.23	4.51704
4.24	4.52987
4.25	4.51572
4.26	4.52033
4.27	4.50026
4.28	4.50256
4.29	4.51572
4.3	4.50289
4.31	4.51835
4.32	4.50914
4.33	4.5075
4.34	4.56539
4.35	4.55092
4.36	4.50881
4.37	4.48908
4.38	4.48677
4.39	4.49072
4.4	4.52033
4.41	4.51638
4.42	4.51737
4.43	4.46375
4.44	4.46309
4.45	4.49796
4.46	4.48019
4.47	4.48184
4.48	4.49302
4.49	4.51802
4.5	4.53973
4.51	4.55125
4.52	4.53085
4.53	4.46506
4.54	4.45651
4.55	4.46769
4.56	4.5019
4.57	4.49631
4.58	4.495
4.59	4.52559
4.6	4.51144
4.61	4.52296
4.62	4.50092
4.63	4.44796
4.64	4.52789
4.65	4.53875
4.66	4.48875
4.67	4.51868
4.68	4.49269
4.69	4.47065
4.7	4.46046
4.71	4.47592
4.72	4.49763
4.73	4.46342
4.74	4.51737
4.75	4.49664
4.76	4.48677
4.77	4.49269
4.78	4.50158
4.79	4.495
4.8	4.48875
4.81	4.51934
4.82	4.46901
4.83	4.47822
4.84	4.48381
4.85	4.49335
4.86	4.49006
4.87	4.49368
4.88	4.47888
4.89	4.48973
4.9	4.4825
4.91	4.49171
4.92	4.50158
4.93	4.49894
4.94	4.45519
4.95	4.4519
4.96	4.46835
4.97	4.48019
4.98	4.47855
4.99	4.44763
5	4.47164
5.01	4.44072
5.02	4.44927
5.03	4.42756
5.04	4.46605
5.05	4.47723
5.06	4.44434
5.07	4.47296
5.08	4.49039
5.09	4.45519
5.1	4.47427
5.11	4.46967
5.12	4.46736
5.13	4.49039
5.14	4.49434
5.15	4.51605
5.16	4.43644
5.17	4.46013
5.18	4.49368
5.19	4.45519
5.2	4.46144
5.21	4.46605
5.22	4.45914
5.23	4.47
5.24	4.49039
5.25	4.44861
5.26	4.46473
5.27	4.45585
5.28	4.44598
5.29	4.46407
5.3	4.46309
5.31	4.41769
5.32	4.44006
5.33	4.45322
5.34	4.4098
5.35	4.43381
5.36	4.43052
5.37	4.43973
5.38	4.42427
5.39	4.42394
5.4	4.4473
5.41	4.47592
5.42	4.45848
5.43	4.4519
5.44	4.41506
5.45	4.41572
5.46	4.4246
5.47	4.43151
5.48	4.42657
5.49	4.41374
5.5	4.44368
5.51	4.4042
5.52	4.44105
5.53	4.45815
5.54	4.44664
5.55	4.41243
5.56	4.42493
5.57	4.42164
5.58	4.44993
5.59	4.44631
5.6	4.42032
5.61	4.41703
5.62	4.43545
5.63	4.44105
5.64	4.43874
5.65	4.44697
5.66	4.42394
5.67	4.41374
5.68	4.4246
5.69	4.43184
5.7	4.43414
5.71	4.44467
5.72	4.43315
5.73	4.40947
5.74	4.4223
5.75	4.41374
5.76	4.40157
5.77	4.42361
5.78	4.42624
5.79	4.41144
5.8	4.3917
5.81	4.39532
5.82	4.43151
5.83	4.33808
5.84	4.43052
5.85	4.43151
5.86	4.46539
5.87	4.42723
5.88	4.43315
5.89	4.39927
5.9	4.37887
5.91	4.4019
5.92	4.40881
5.93	4.40914
5.94	4.42756
5.95	4.42624
5.96	4.43348
5.97	4.45256
5.98	4.42032
5.99	4.42032
6	4.41539
6.01	4.40519
6.02	4.40355
6.03	4.4167
6.04	4.37657
6.05	4.46078
6.06	4.42361
6.07	4.37328
6.08	4.3871
6.09	4.43644
6.1	4.39269
6.11	4.38249
6.12	4.39993
6.13	4.38973
6.14	4.39631
6.15	4.38216
6.16	4.38183
6.17	4.41703
6.18	4.39598
6.19	4.37558
6.2	4.4246
6.21	4.43184
6.22	4.38249
6.23	4.37756
6.24	4.37131
6.25	4.37328
6.26	4.39302
6.27	4.3667
6.28	4.38512
6.29	4.41769
6.3	4.41309
6.31	4.36769
6.32	4.37328
6.33	4.38183
6.34	4.38315
6.35	4.3848
6.36	4.3996
6.37	4.37789
6.38	4.34499
6.39	4.36473
6.4	4.3769
6.41	4.3792
6.42	4.36999
6.43	4.38183
6.44	4.34762
6.45	4.38315
6.46	4.40387
6.47	4.38019
6.48	4.39434
6.49	4.36111
6.5	4.3871
6.51	4.44138
6.52	4.44401
6.53	4.39401
6.54	4.36012
6.55	4.4098
6.56	4.41769
6.57	4.42295
6.58	4.40453
6.59	4.38414
6.6	4.38973
6.61	4.38644
6.62	4.39598
6.63	4.39762
6.64	4.43184
6.65	4.41144
6.66	4.37493
6.67	4.39072
6.68	4.35782
6.69	4.37756
6.7	4.3496
6.71	4.35322
6.72	4.37394
6.73	4.37591
6.74	4.36835
6.75	4.35387
6.76	4.36341
6.77	4.38874
6.78	4.36835
6.79	4.35716
6.8	4.38545
6.81	4.3973
6.82	4.34236
6.83	4.35716
6.84	4.38151
6.85	4.34335
6.86	4.33874
6.87	4.34598
6.88	4.37526
6.89	4.36933
6.9	4.37032
6.91	4.35716
6.92	4.36341
6.93	4.37361
6.94	4.33348
6.95	4.37624
6.96	4.40157
6.97	4.37591
6.98	4.29729
6.99	4.34729
7	4.37262
7.01	4.35354
7.02	4.30946
7.03	4.3144
7.04	4.34335
7.05	4.36966
7.06	4.33545
7.07	4.33874
7.08	4.3394
7.09	4.344
7.1	4.32032
7.11	4.33677
7.12	4.33019
7.13	4.31802
7.14	4.32328
7.15	4.30058
7.16	4.32854
7.17	4.36933
7.18	4.34006
7.19	4.34137
7.2	4.30288
7.21	4.32789
7.22	4.35354
7.23	4.32591
7.24	4.3246
7.25	4.33677
7.26	4.35651
7.27	4.34072
7.28	4.36637
7.29	4.30223
7.3	4.31308
7.31	4.30881
7.32	4.29466
7.33	4.34466
7.34	4.30025
7.35	4.29499
7.36	4.32986
7.37	4.35651
7.38	4.37295
7.39	4.33446
7.4	4.31506
7.41	4.32986
7.42	4.344
7.43	4.34269
7.44	4.34466
7.45	4.32657
7.46	4.30223
7.47	4.3167
7.48	4.35453
7.49	4.35716
7.5	4.33907
7.51	4.32131
7.52	4.32262
7.53	4.32887
7.54	4.34795
7.55	4.28315
7.56	4.31736
7.57	4.35486
7.58	4.31341
7.59	4.31078
7.6	4.30914
7.61	4.36341
7.62	4.35815
7.63	4.36736
7.64	4.34828
7.65	4.3371
7.66	4.34664
7.67	4.31802
7.68	4.34236
7.69	4.36637
7.7	4.32756
7.71	4.29828
7.72	4.31012
7.73	4.31933
7.74	4.33282
7.75	4.33874
7.76	4.32361
7.77	4.34039
7.78	4.34137
7.79	4.32493
7.8	4.2917
7.81	4.30387
7.82	4.29269
7.83	4.31999
7.84	4.28973
7.85	4.30782
7.86	4.31242
7.87	4.29565
7.88	4.31604
7.89	4.34368
7.9	4.35486
7.91	4.32065
7.92	4.28973
7.93	4.31769
7.94	4.31769
7.95	4.26834
7.96	4.29795
7.97	4.32887
7.98	4.31144
7.99	4.29335
8	4.3019
8.01	4.29302
8.02	4.31506
8.03	4.34039
8.04	4.32164
8.05	4.34697
8.06	4.344
8.07	4.29532
8.08	4.33874
8.09	4.31177
8.1	4.2917
8.11	4.28216
8.12	4.28479
8.13	4.29269
8.14	4.31933
8.15	4.34006
8.16	4.32229
8.17	4.30354
8.18	4.3371
8.19	4.31571
8.2	4.27459
8.21	4.29631
8.22	4.29006
8.23	4.30848
8.24	4.319
8.25	4.27756
8.26	4.29992
8.27	4.29433
8.28	4.26867
8.29	4.30946
8.3	4.32821
8.31	4.34795
8.32	4.30486
8.33	4.3542
8.34	4.35058
8.35	4.3246
8.36	4.28479
8.37	4.3315
8.38	4.30025
8.39	4.26341
8.4	4.30749
8.41	4.29992
8.42	4.30782
8.43	4.28183
8.44	4.25486
8.45	4.30881
8.46	4.30881
8.47	4.29203
8.48	4.28677
8.49	4.27525
8.5	4.28709
8.51	4.3065
8.52	4.31144
8.53	4.27427
8.54	4.27723
8.55	4.28611
8.56	4.26933
8.57	4.30157
8.58	4.26374
8.59	4.26637
8.6	4.30256
8.61	4.29762
8.62	4.28841
8.63	4.29466
8.64	4.27032
8.65	4.30256
8.66	4.28709
8.67	4.3019
8.68	4.28249
8.69	4.26012
8.7	4.23611
8.71	4.24005
8.72	4.28775
8.73	4.2644
8.74	4.29137
8.75	4.28117
8.76	4.25486
8.77	4.28907
8.78	4.25946
8.79	4.30519
8.8	4.30782
8.81	4.28709
8.82	4.2815
8.83	4.2815
8.84	4.31769
8.85	4.344
8.86	4.27953
8.87	4.29466
8.88	4.29631
8.89	4.28709
8.9	4.27756
8.91	4.2815
8.92	4.27196
8.93	4.27427
8.94	4.26407
8.95	4.28019
8.96	4.29598
8.97	4.25716
8.98	4.29302
8.99	4.25617
9	4.2644
9.01	4.27821
9.02	4.28413
9.03	4.24861
9.04	4.27361
9.05	4.26209
9.06	4.24762
9.07	4.26966
9.08	4.26374
9.09	4.31012
9.1	4.25749
9.11	4.24499
9.12	4.24762
9.13	4.25157
9.14	4.26933
9.15	4.27525
9.16	4.26407
9.17	4.25946
9.18	4.2815
9.19	4.29071
9.2	4.29104
9.21	4.2315
9.22	4.25387
9.23	4.25848
9.24	4.27459
9.25	4.26473
9.26	4.22854
9.27	4.30354
9.28	4.29367
9.29	4.25848
9.3	4.26604
9.31	4.28315
9.32	4.30683
9.33	4.28677
9.34	4.26242
9.35	4.2565
9.36	4.2792
9.37	4.27788
9.38	4.28545
9.39	4.25979
9.4	4.28808
9.41	4.25157
9.42	4.27459
9.43	4.26538
9.44	4.27459
9.45	4.28644
9.46	4.27953
9.47	4.24795
9.48	4.269
9.49	4.22887
9.5	4.25255
9.51	4.27953
9.52	4.2644
9.53	4.24236
9.54	4.24663
9.55	4.24729
9.56	4.2394
9.57	4.26538
9.58	4.28052
9.59	4.28315
9.6	4.29894
9.61	4.28216
9.62	4.30025
9.63	4.28709
9.64	4.244
9.65	4.25913
9.66	4.25617
9.67	4.26374
9.68	4.25387
9.69	4.25321
9.7	4.2519
9.71	4.22032
9.72	4.2213
9.73	4.23282
9.74	4.24926
9.75	4.28545
9.76	4.22953
9.77	4.24894
9.78	4.23051
9.79	4.2338
9.8	4.27953
9.81	4.25321
9.82	4.24663
9.83	4.2519
9.84	4.24729
9.85	4.28084
9.86	4.28512
9.87	4.2542
9.88	4.22394
9.89	4.22032
9.9	4.25091
9.91	4.24992
9.92	4.2542
9.93	4.25782
9.94	4.27525
9.95	4.27262
9.96	4.23644
9.97	4.26308
9.98	4.28611
9.99	4.26242
10	4.25354
10.01	4.22591
10.02	4.27032
10.03	4.28052
10.04	4.26867
10.05	4.23282
10.06	4.27887
10.07	4.26144
10.08	4.21407
10.09	4.28644
10.1	4.21966
10.11	4.23479
10.12	4.23051
10.13	4.22032
10.14	4.25321
10.15	4.22657
10.16	4.2542
10.17	4.2463
10.18	4.29795
10.19	4.29038
10.2	4.2588
10.21	4.26407
10.22	4.23611
10.23	4.25255
10.24	4.22097
10.25	4.26045
10.26	4.26374
10.27	4.23315
10.28	4.23973
10.29	4.2065
10.3	4.22591
10.31	4.24301
10.32	4.2713
10.33	4.23019
10.34	4.23216
10.35	4.22426
10.36	4.25716
10.37	4.21472
10.38	4.18183
10.39	4.19926
10.4	4.23084
10.41	4.23775
10.42	4.24663
10.43	4.21867
10.44	4.22657
10.45	4.2417
10.46	4.25946
10.47	4.21604
10.48	4.22097
10.49	4.24762
10.5	4.22229
10.51	4.23907
10.52	4.23644
10.53	4.25848
10.54	4.24203
10.55	4.22295
10.56	4.25124
10.57	4.26834
10.58	4.2542
10.59	4.20749
10.6	4.19005
10.61	4.22788
10.62	4.22394
10.63	4.21604
10.64	4.21078
10.65	4.2463
10.66	4.23973
10.67	4.22525
10.68	4.21505
10.69	4.20189
10.7	4.26012
10.71	4.20025
10.72	4.17262
10.73	4.22525
10.74	4.21604
10.75	4.25223
10.76	4.22295
10.77	4.19466
10.78	4.17953
10.79	4.19268
10.8	4.1917
10.81	4.21374
10.82	4.23315
10.83	4.19696
10.84	4.20157
10.85	4.22328
10.86	4.21933
10.87	4.20486
10.88	4.19236
10.89	4.169
10.9	4.21571
10.91	4.24367
10.92	4.23611
10.93	4.22821
10.94	4.21045
10.95	4.23019
10.96	4.22163
10.97	4.23973
10.98	4.25683
10.99	4.22295
11	4.2088
11.01	4.21867
11.02	4.20321
11.03	4.23084
11.04	4.22525
11.05	4.24005
11.06	4.20518
11.07	4.17689
11.08	4.20584
11.09	4.23051
11.1	4.20782
11.11	4.22953
11.12	4.20124
11.13	4.2167
11.14	4.24762
11.15	4.23019
11.16	4.24071
11.17	4.23216
11.18	4.21275
11.19	4.19597
11.2	4.22262
11.21	4.23578
11.22	4.23611
11.23	4.22097
11.24	4.16604
11.25	4.20913
11.26	4.1917
11.27	4.17031
11.28	4.19532
11.29	4.22394
11.3	4.17262
11.31	4.23742
11.32	4.22262
11.33	4.1815
11.34	4.18939
11.35	4.15749
11.36	4.1815
11.37	4.21308
11.38	4.24038
11.39	4.20124
11.4	4.18939
11.41	4.22196
11.42	4.22624
11.43	4.2088
11.44	4.21012
11.45	4.18775
11.46	4.20847
11.47	4.19334
11.48	4.1736
11.49	4.20025
11.5	4.17887
11.51	4.19334
11.52	4.20058
11.53	4.19334
11.54	4.21505
11.55	4.25453
11.56	4.19268
11.57	4.18545
11.58	4.19696
11.59	4.19992
11.6	4.19301
11.61	4.18347
11.62	4.20091
11.63	4.1861
11.64	4.20617
11.65	4.23676
11.66	4.16571
11.67	4.20255
11.68	4.18841
11.69	4.17492
11.7	4.18676
11.71	4.1861
11.72	4.19499
11.73	4.20124
11.74	4.18578
11.75	4.20387
11.76	4.21209
11.77	4.20354
11.78	4.2167
11.79	4.21538
11.8	4.21111
11.81	4.22657
11.82	4.21308
11.83	4.17558
11.84	4.22196
11.85	4.18216
11.86	4.21078
11.87	4.20157
11.88	4.19104
11.89	4.22295
11.9	4.15551
11.91	4.16768
11.92	4.22032
11.93	4.20979
11.94	4.16505
11.95	4.16012
11.96	4.16341
11.97	4.17031
11.98	4.19301
11.99	4.19137
12	4.20222
12.01	4.16078
12.02	4.20189
12.03	4.19301
12.04	4.194
12.05	4.22097
12.06	4.21341
12.07	4.21505
12.08	4.18446
12.09	4.16801
12.1	4.18018
12.11	4.18512
12.12	4.22887
12.13	4.20091
12.14	4.18578
12.15	4.15749
12.16	4.20683
12.17	4.20683
12.18	4.16768
12.19	4.20124
12.2	4.18939
12.21	4.22722
12.22	4.21505
12.23	4.20782
12.24	4.19926
12.25	4.19104
12.26	4.20913
12.27	4.20189
12.28	4.17426
12.29	4.16275
12.3	4.21604
12.31	4.20354
12.32	4.19301
12.33	4.15617
12.34	4.16209
12.35	4.17492
12.36	4.16768
12.37	4.1815
12.38	4.18709
12.39	4.17953
12.4	4.15518
12.41	4.20518
12.42	4.23841
12.43	4.19926
12.44	4.1713
12.45	4.20124
12.46	4.19992
12.47	4.17821
12.48	4.17722
12.49	4.16801
12.5	4.22295
12.51	4.2042
12.52	4.18446
12.53	4.20091
12.54	4.19203
12.55	4.22459
12.56	4.16275
12.57	4.14071
12.58	4.18216
12.59	4.18643
12.6	4.21801
12.61	4.20124
12.62	4.16045
12.63	4.18545
12.64	4.15321
12.65	4.18775
12.66	4.1792
12.67	4.22163
12.68	4.17985
12.69	4.22163
12.7	4.16703
12.71	4.16078
12.72	4.18874
12.73	4.17821
12.74	4.23347
12.75	4.17821
12.76	4.21637
12.77	4.16374
12.78	4.18018
12.79	4.2088
12.8	4.18413
12.81	4.2042
12.82	4.194
12.83	4.18051
12.84	4.15946
12.85	4.18347
12.86	4.17295
12.87	4.15255
12.88	4.18018
12.89	4.13775
12.9	4.12426
12.91	4.19203
12.92	4.14597
12.93	4.17328
12.94	4.17689
12.95	4.17295
12.96	4.17393
12.97	4.18413
12.98	4.17985
12.99	4.1792
13	4.16966
13.01	4.17097
13.02	4.18446
13.03	4.16209
13.04	4.1917
13.05	4.18808
13.06	4.18808
13.07	4.17262
13.08	4.17722
13.09	4.19334
13.1	4.17229
13.11	4.219
13.12	4.19532
13.13	4.16176
13.14	4.17163
13.15	4.21341
13.16	4.20453
13.17	4.14959
13.18	4.18939
13.19	4.16275
13.2	4.17558
13.21	4.19828
13.22	4.19334
13.23	4.15124
13.24	4.14466
13.25	4.14334
13.26	4.12459
13.27	4.16933
13.28	4.17591
13.29	4.15387
13.3	4.14071
13.31	4.18479
13.32	4.17985
13.33	4.19466
13.34	4.16867
13.35	4.17196
13.36	4.16176
13.37	4.18775
13.38	4.16406
13.39	4.19301
13.4	4.18183
13.41	4.18643
13.42	4.13084
13.43	4.12031
13.44	4.16637
13.45	4.17328
13.46	4.16045
13.47	4.11735
13.48	4.15452
13.49	4.14301
13.5	4.13841
13.51	4.16735
13.52	4.17426
13.53	4.17393
13.54	4.19828
13.55	4.17031
13.56	4.15321
13.57	4.14959
13.58	4.16703
13.59	4.10716
13.6	4.14466
13.61	4.17722
13.62	4.18117
13.63	4.17328
13.64	4.16341
13.65	4.16571
13.66	4.17558
13.67	4.13676
13.68	4.15091
13.69	4.15847
13.7	4.17624
13.71	4.13117
13.72	4.12459
13.73	4.13084
13.74	4.13874
13.75	4.15683
13.76	4.13972
13.77	4.15058
13.78	4.15847
13.79	4.1213
13.8	4.13577
13.81	4.12492
13.82	4.14597
13.83	4.13512
13.84	4.13347
13.85	4.14663
13.86	4.17426
13.87	4.16801
13.88	4.17525
13.89	4.15518
13.9	4.16176
13.91	4.12295
13.92	4.13413
13.93	4.12689
13.94	4.13545
13.95	4.16966
13.96	4.14531
13.97	4.13643
13.98	4.16538
13.99	4.20058
14	4.15584
14.01	4.15913
14.02	4.15255
14.03	4.11966
14.04	4.13643
14.05	4.16209
14.06	4.12196
14.07	4.13314
14.08	4.19499
14.09	4.13512
14.1	4.16472
14.11	4.17064
14.12	4.13577
14.13	4.16406
14.14	4.16966
14.15	4.14729
14.16	4.15255
14.17	4.14663
14.18	4.15617
14.19	4.1542
14.2	4.169
14.21	4.10551
14.22	4.12229
14.23	4.17854
14.24	4.12097
14.25	4.12393
14.26	4.14301
14.27	4.15387
14.28	4.15518
14.29	4.1417
14.3	4.14137
14.31	4.16374
14.32	4.15124
14.33	4.15025
14.34	4.18314
14.35	4.17492
14.36	4.15058
14.37	4.13446
14.38	4.11406
14.39	4.15847
14.4	4.15518
14.41	4.14531
14.42	4.1338
14.43	4.11801
14.44	4.12591
14.45	4.17624
14.46	4.15683
14.47	4.16801
14.48	4.17985
14.49	4.11538
14.5	4.11867
14.51	4.13709
14.52	4.1361
14.53	4.14005
14.54	4.13314
14.55	4.1361
14.56	4.14104
14.57	4.16505
14.58	4.13051
14.59	4.1565
14.6	4.16078
14.61	4.17492
14.62	4.15913
14.63	4.15321
14.64	4.17064
14.65	4.15255
14.66	4.13051
14.67	4.1213
14.68	4.14499
14.69	4.1361
14.7	4.16538
14.71	4.1417
14.72	4.15452
14.73	4.15058
14.74	4.15189
14.75	4.13281
14.76	4.12722
14.77	4.16604
14.78	4.18841
14.79	4.20091
14.8	4.15058
14.81	4.14795
14.82	4.10387
14.83	4.12755
14.84	4.19203
14.85	4.13248
14.86	4.15354
14.87	4.13775
14.88	4.14301
14.89	4.16439
14.9	4.18808
14.91	4.12525
14.92	4.12426
14.93	4.16275
14.94	4.13314
14.95	4.14564
14.96	4.13413
14.97	4.1111
14.98	4.12755
14.99	4.12656
15	4.10354
15.01	4.11012
15.02	4.14466
15.03	4.15781
15.04	4.13281
15.05	4.1292
15.06	4.144
15.07	4.15485
15.08	4.11834
15.09	4.14301
15.1	4.14334
15.11	4.1111
15.12	4.11998
15.13	4.14367
15.14	4.12623
15.15	4.17755
15.16	4.16703
15.17	4.15485
15.18	4.12887
15.19	4.12163
15.2	4.14729
15.21	4.14071
15.22	4.14729
15.23	4.16505
15.24	4.18446
15.25	4.17262
15.26	4.15584
15.27	4.15946
15.28	4.14235
15.29	4.12459
15.3	4.15452
15.31	4.13117
15.32	4.13676
15.33	4.15124
15.34	4.17031
15.35	4.19564
15.36	4.14202
15.37	4.13808
15.38	4.13972
15.39	4.15551
15.4	4.16406
15.41	4.1588
15.42	4.06735
15.43	4.10979
15.44	4.16341
15.45	4.18808
15.46	4.14893
15.47	4.12821
15.48	4.12623
15.49	4.12196
15.5	4.14071
15.51	4.14499
15.52	4.14564
15.53	4.11341
15.54	4.11373
15.55	4.13281
15.56	4.12492
15.57	4.1338
15.58	4.15058
15.59	4.13841
15.6	4.12985
15.61	4.11966
15.62	4.13084
15.63	4.14499
15.64	4.13084
15.65	4.11439
15.66	4.15058
15.67	4.13939
15.68	4.12854
15.69	4.16637
15.7	4.12492
15.71	4.09663
15.72	4.11966
15.73	4.12031
15.74	4.13841
15.75	4.11834
15.76	4.13939
15.77	4.15321
15.78	4.13512
15.79	4.14301
15.8	4.13347
15.81	4.10814
15.82	4.10518
15.83	4.1486
15.84	4.11077
15.85	4.09038
15.86	4.12426
15.87	4.14137
15.88	4.14038
15.89	4.16406
15.9	4.14564
15.91	4.11209
15.92	4.09334
15.93	4.10584
15.94	4.10354
15.95	4.12854
15.96	4.11637
15.97	4.12459
15.98	4.15814
15.99	4.11242
16	4.10123
16.01	4.13281
16.02	4.11966
16.03	4.11571
16.04	4.10847
16.05	4.10979
16.06	4.08479
16.07	4.13216
16.08	4.14893
16.09	4.11571
16.1	4.09827
16.11	4.11768
16.12	4.12623
16.13	4.14762
16.14	4.12591
16.15	4.15584
16.16	4.15814
16.17	4.11735
16.18	4.09498
16.19	4.0838
16.2	4.1361
16.21	4.16768
16.22	4.13643
16.23	4.14334
16.24	4.10255
16.25	4.10387
16.26	4.10551
16.27	4.12985
16.28	4.14597
16.29	4.12492
16.3	4.12295
16.31	4.07821
16.32	4.09893
16.33	4.14992
16.34	4.09794
16.35	4.13216
16.36	4.13479
16.37	4.12623
16.38	4.1088
16.39	4.09564
16.4	4.069
16.41	4.11735
16.42	4.13906
16.43	4.13775
16.44	4.12459
16.45	4.11768
16.46	4.11012
16.47	4.14564
16.48	4.12229
16.49	4.11801
16.5	4.12295
16.51	4.10321
16.52	4.13709
16.53	4.13051
16.54	4.10156
16.55	4.09762
16.56	4.08676
16.57	4.10123
16.58	4.14729
16.59	4.12525
16.6	4.04761
16.61	4.15091
16.62	4.14104
16.63	4.09334
16.64	4.10584
16.65	4.12031
16.66	4.10748
16.67	4.13314
16.68	4.12722
16.69	4.13051
16.7	4.13512
16.71	4.13314
16.72	4.14926
16.73	4.09104
16.74	4.09992
16.75	4.119
16.76	4.1611
16.77	4.14795
16.78	4.11341
16.79	4.13906
16.8	4.13413
16.81	4.11077
16.82	4.12623
16.83	4.13676
16.84	4.144
16.85	4.12821
16.86	4.12689
16.87	4.15551
16.88	4.13939
16.89	4.10452
16.9	4.09498
16.91	4.11834
16.92	4.119
16.93	4.13808
16.94	4.13314
16.95	4.11308
16.96	4.11538
16.97	4.12492
16.98	4.11308
16.99	4.12821
17	4.1236
17.01	4.09268
17.02	4.13972
17.03	4.12952
17.04	4.10913
17.05	4.14926
17.06	4.15156
17.07	4.13051
17.08	4.12623
17.09	4.11538
17.1	4.09334
17.11	4.09498
17.12	4.13577
17.13	4.15485
17.14	4.12952
17.15	4.11044
17.16	4.17558
17.17	4.11669
17.18	4.10189
17.19	4.16341
17.2	4.12985
17.21	4.16341
17.22	4.11308
17.23	4.06702
17.24	4.14104
17.25	4.10123
17.26	4.11308
17.27	4.12656
17.28	4.12327
17.29	4.12722
17.3	4.1361
17.31	4.10946
17.32	4.12821
17.33	4.1292
17.34	4.09433
17.35	4.13939
17.36	4.12426
17.37	4.11308
17.38	4.10584
17.39	4.11735
17.4	4.10913
17.41	4.13117
17.42	4.13248
17.43	4.13808
17.44	4.10946
17.45	4.12755
17.46	4.13972
17.47	4.15683
17.48	4.14137
17.49	4.08676
17.5	4.13545
17.51	4.1588
17.52	4.11933
17.53	4.14334
17.54	4.14235
17.55	4.12952
17.56	4.08479
17.57	4.1065
17.58	4.15222
17.59	4.1417
17.6	4.11209
17.61	4.09597
17.62	4.13676
17.63	4.12623
17.64	4.11637
17.65	4.09498
17.66	4.09531
17.67	4.09202
17.68	4.11275
17.69	4.12064
17.7	4.1088
17.71	4.12525
17.72	4.12064
17.73	4.13577
17.74	4.12064
17.75	4.13347
17.76	4.1338
17.77	4.13742
17.78	4.12722
17.79	4.06636
17.8	4.06768
17.81	4.12623
17.82	4.14499
17.83	4.08413
17.84	4.08709
17.85	4.10255
17.86	4.10584
17.87	4.10847
17.88	4.12952
17.89	4.12064
17.9	4.12952
17.91	4.06505
17.92	4.06307
17.93	4.07985
17.94	4.11604
17.95	4.11275
17.96	4.06472
17.97	4.08051
17.98	4.09564
17.99	4.09433
18	4.13413
18.01	4.10584
18.02	4.09794
18.03	4.10781
18.04	4.13479
18.05	4.11242
18.06	4.09071
18.07	4.07393
18.08	4.11669
18.09	4.14137
18.1	4.09893
18.11	4.09992
18.12	4.08018
18.13	4.10847
18.14	4.10847
18.15	4.09696
18.16	4.11538
18.17	4.13413
18.18	4.13939
18.19	4.0986
18.2	4.11044
18.21	4.08215
18.22	4.06439
18.23	4.06801
18.24	4.11998
18.25	4.10123
18.26	4.09827
18.27	4.09992
18.28	4.1292
18.29	4.06965
18.3	4.08676
18.31	4.11571
18.32	4.0963
18.33	4.10058
18.34	4.10288
18.35	4.08906
18.36	4.12064
18.37	4.11571
18.38	4.09762
18.39	4.10551
18.4	4.10255
18.41	4.07886
18.42	4.09465
18.43	4.11768
18.44	4.12031
18.45	4.08676
18.46	4.10025
18.47	4.10354
18.48	4.12788
18.49	4.1236
18.5	4.13248
18.51	4.10058
18.52	4.0815
18.53	4.08314
18.54	4.04564
18.55	4.07952
18.56	4.09202
18.57	4.11505
18.58	4.07558
18.59	4.12229
18.6	4.14531
18.61	4.14038
18.62	4.08873
18.63	4.11044
18.64	4.10617
18.65	4.11604
18.66	4.11933
18.67	4.12952
18.68	4.11044
18.69	4.08972
18.7	4.12163
18.71	4.1009
18.72	4.12064
18.73	4.08939
18.74	4.10979
18.75	4.12623
18.76	4.09137
18.77	4.12952
18.78	4.12656
18.79	4.12459
18.8	4.13314
18.81	4.09794
18.82	4.09531
18.83	4.12031
18.84	4.11505
18.85	4.09137
18.86	4.08117
18.87	4.10847
18.88	4.13643
18.89	4.09137
18.9	4.10354
18.91	4.1292
18.92	4.12623
18.93	4.10551
18.94	4.09071
18.95	4.08183
18.96	4.04926
18.97	4.10419
18.98	4.11406
18.99	4.05715
19	4.09729
19.01	4.12591
19.02	4.1009
19.03	4.11998
19.04	4.11373
19.05	4.12788
19.06	4.09235
19.07	4.10156
19.08	4.08479
19.09	4.11439
19.1	4.11571
19.11	4.05847
19.12	4.09597
19.13	4.08446
19.14	4.08018
19.15	4.07952
19.16	4.14268
19.17	4.12097
19.18	4.12459
19.19	4.11735
19.2	4.11801
19.21	4.10025
19.22	4.08314
19.23	4.08808
19.24	4.09531
19.25	4.09663
19.26	4.09663
19.27	4.08577
19.28	4.08446
19.29	4.09465
19.3	4.09992
19.31	4.09729
19.32	4.09433
19.33	4.11044
19.34	4.12722
19.35	4.0861
19.36	4.11472
19.37	4.13972
19.38	4.10847
19.39	4.07985
19.4	4.06538
19.41	4.1009
19.42	4.11077
19.43	4.10288
19.44	4.10485
19.45	4.07229
19.46	4.06505
19.47	4.07919
19.48	4.10814
19.49	4.07689
19.5	4.12558
19.51	4.11702
19.52	4.14038
19.53	4.11834
19.54	4.11834
19.55	4.09564
19.56	4.07525
19.57	4.08742
19.58	4.09531
19.59	4.1009
19.6	4.07886
19.61	4.08446
19.62	4.10058
19.63	4.10979
19.64	4.11012
19.65	4.11275
19.66	4.144
19.67	4.12525
19.68	4.08347
19.69	4.10058
19.7	4.06505
19.71	4.06307
19.72	4.08742
19.73	4.11604
19.74	4.09071
19.75	4.09564
19.76	4.0963
19.77	4.10156
19.78	4.12722
19.79	4.09926
19.8	4.11801
19.81	4.10387
19.82	4.11077
19.83	4.11077
19.84	4.09827
19.85	4.10156
19.86	4.10222
19.87	4.08479
19.88	4.12591
19.89	4.08808
19.9	4.10156
19.91	4.1236
19.92	4.10189
19.93	4.08676
19.94	4.09465
19.95	4.0861
19.96	4.13084
19.97	4.07097
19.98	4.06932
19.99	4.08577
20	4.09137
20.01	4.08972
20.02	4.10288
20.03	4.0588
20.04	4.11998
20.05	4.09959
20.06	4.08347
20.07	4.08808
20.08	4.11439
20.09	4.09268
20.1	4.11505
20.11	4.10551
20.12	4.07558
20.13	4.08117
20.14	4.09301
20.15	4.08544
20.16	4.09794
20.17	4.07558
20.18	4.0815
20.19	4.09334
20.2	4.09038
20.21	4.08577
20.22	4.06669
20.23	4.11242
20.24	4.10354
20.25	4.08643
20.26	4.06801
20.27	4.10716
20.28	4.11571
20.29	4.11702
20.3	4.13117
20.31	4.08676
20.32	4.07788
20.33	4.08018
20.34	4.09137
20.35	4.06307
20.36	4.08676
20.37	4.12196
20.38	4.07919
20.39	4.05913
20.4	4.07196
20.41	4.09498
20.42	4.10288
20.43	4.09104
20.44	4.09663
20.45	4.12426
20.46	4.13347
20.47	4.09235
20.48	4.07196
20.49	4.09992
20.5	4.07393
20.51	4.06998
20.52	4.07788
20.53	4.08018
20.54	4.07558
20.55	4.06834
20.56	4.07229
20.57	4.09498
20.58	4.13808
20.59	4.09762
20.6	4.0963
20.61	4.069
20.62	4.08347
20.63	4.07492
20.64	4.0509
20.65	4.069
20.66	4.09169
20.67	4.09202
20.68	4.12229
20.69	4.09597
20.7	4.1009
20.71	4.08511
20.72	4.06669
20.73	4.10354
20.74	4.09959
20.75	4.04301
20.76	4.05255
20.77	4.08248
20.78	4.1111
20.79	4.11472
20.8	4.13183
20.81	4.09104
20.82	4.07064
20.83	4.07623
20.84	4.08413
20.85	4.07755
20.86	4.07886
20.87	4.09005
20.88	4.09038
20.89	4.11801
20.9	4.12985
20.91	4.11604
20.92	4.09104
20.93	4.0884
20.94	4.07229
20.95	4.09104
20.96	4.10485
20.97	4.08939
20.98	4.10781
20.99	4.07985
21	4.08873
21.01	4.1009
21.02	4.08248
21.03	4.07327
21.04	4.08051
21.05	4.07886
21.06	4.0986
21.07	4.09334
21.08	4.08775
21.09	4.09597
21.1	4.09235
21.11	4.08248
21.12	4.09005
21.13	4.10946
21.14	4.0838
21.15	4.069
21.16	4.1009
21.17	4.12854
21.18	4.13248
21.19	4.11044
21.2	4.0759
21.21	4.08873
21.22	4.0838
21.23	4.11505
21.24	4.09729
21.25	4.08873
21.26	4.09762
21.27	4.09367
21.28	4.11439
21.29	4.04465
21.3	4.04432
21.31	4.05485
21.32	4.09926
21.33	4.08643
21.34	4.07755
21.35	4.08544
21.36	4.05025
21.37	4.06373
21.38	4.02689
21.39	4.02689
21.4	4.04663
21.41	4.07919
21.42	4.07985
21.43	4.04728
21.44	4.04926
21.45	4.11242
21.46	4.0736
21.47	4.07689
21.48	4.08183
21.49	4.07854
21.5	4.05748
21.51	4.0815
21.52	4.07623
21.53	4.07821
21.54	4.07755
21.55	4.09893
21.56	4.09794
21.57	4.05847
21.58	4.06242
21.59	4.0463
21.6	4.06275
21.61	4.06538
21.62	4.08577
21.63	4.08775
21.64	4.10058
21.65	4.08281
21.66	4.10387
21.67	4.08084
21.68	4.05715
21.69	4.07623
21.7	4.10189
21.71	4.09564
21.72	4.01603
21.73	4.05321
21.74	4.05584
21.75	4.04301
21.76	4.09729
21.77	4.08709
21.78	4.08314
21.79	4.09071
21.8	4.07854
21.81	4.08314
21.82	4.06242
21.83	4.08446
21.84	4.08215
21.85	4.06538
21.86	4.06538
21.87	4.08347
21.88	4.05814
21.89	4.07558
21.9	4.12163
21.91	4.09334
21.92	4.07492
21.93	4.08183
21.94	4.09794
21.95	4.09959
21.96	4.06571
21.97	4.0463
21.98	4.09597
21.99	4.06834
22	4.08906
22.01	4.05057
22.02	4.08314
22.03	4.08577
22.04	4.08084
22.05	4.08742
22.06	4.04893
22.07	4.12492
22.08	4.10617
22.09	4.11538
22.1	4.07722
22.11	4.09334
22.12	4.06604
22.13	4.06505
22.14	4.1009
22.15	4.06176
22.16	4.06965
22.17	4.08347
22.18	4.07558
22.19	4.07952
22.2	4.09005
22.21	4.09433
22.22	4.05913
22.23	4.10058
22.24	4.13314
22.25	4.10617
22.26	4.11242
22.27	4.06998
22.28	4.10716
22.29	4.11275
22.3	4.07031
22.31	4.06604
22.32	4.07492
22.33	4.04794
22.34	4.08314
22.35	4.06571
22.36	4.0884
22.37	4.08742
22.38	4.10485
22.39	4.05485
22.4	4.09071
22.41	4.10058
22.42	4.06439
22.43	4.07492
22.44	4.05913
22.45	4.10222
22.46	4.07985
22.47	4.05617
22.48	4.08084
22.49	4.05452
22.5	4.05485
22.51	4.05946
22.52	4.06669
22.53	4.05156
22.54	4.05485
22.55	4.0838
22.56	4.09169
22.57	4.09169
22.58	4.10617
22.59	4.11702
22.6	4.09137
22.61	4.11143
22.62	4.07689
22.63	4.05288
22.64	4.05222
22.65	4.0509
22.66	4.09071
22.67	4.11275
22.68	4.08018
22.69	4.08577
22.7	4.0634
22.71	4.07064
22.72	4.06702
22.73	4.0815
22.74	4.07788
22.75	4.07985
22.76	4.07919
22.77	4.06538
22.78	4.0736
22.79	4.09893
22.8	4.05057
22.81	4.08446
22.82	4.09959
22.83	4.06932
22.84	4.08742
22.85	4.06867
22.86	4.06472
22.87	4.09893
22.88	4.09005
22.89	4.09235
22.9	4.05156
22.91	4.07459
22.92	4.06702
22.93	4.06669
22.94	4.05682
22.95	4.05123
22.96	4.08906
22.97	4.09992
22.98	4.09038
22.99	4.10748
23	4.04005
23.01	4.04169
23.02	4.07821
23.03	4.05979
23.04	4.11373
23.05	4.09038
23.06	4.07426
23.07	4.09137
23.08	4.08215
23.09	4.05781
23.1	4.07163
23.11	4.07919
23.12	4.0838
23.13	4.10321
23.14	4.08676
23.15	4.13117
23.16	4.12393
23.17	4.11768
23.18	4.07294
23.19	4.0509
23.2	4.10321
23.21	4.12229
23.22	4.09334
23.23	4.07196
23.24	4.07163
23.25	4.10025
23.26	4.07097
23.27	4.10847
23.28	4.12525
23.29	4.06472
23.3	4.08742
23.31	4.0736
23.32	4.05979
23.33	4.03807
23.34	4.0634
23.35	4.08413
23.36	4.10847
23.37	4.04169
23.38	4.04005
23.39	4.0565
23.4	4.06373
23.41	4.07689
23.42	4.09235
23.43	4.07459
23.44	4.06373
23.45	4.07722
23.46	4.10255
23.47	4.0838
23.48	4.10189
23.49	4.08511
23.5	4.09268
23.51	4.1111
23.52	4.06209
23.53	4.06176
23.54	4.06176
23.55	4.05979
23.56	4.07722
23.57	4.06571
23.58	4.07261
23.59	4.07886
23.6	4.04696
23.61	4.04761
23.62	4.06965
23.63	4.08347
23.64	4.03972
23.65	4.06801
23.66	4.10452
23.67	4.08117
23.68	4.0861
23.69	4.07327
23.7	4.13939
23.71	4.07821
23.72	4.09794
23.73	4.09794
23.74	4.07886
23.75	4.05715
23.76	4.07985
23.77	4.09104
23.78	4.07097
23.79	4.05748
23.8	4.04926
23.81	4.07656
23.82	4.0986
23.83	4.09564
23.84	4.02261
23.85	4.0634
23.86	4.0588
23.87	4.05682
23.88	4.05321
23.89	4.05518
23.9	4.07985
23.91	4.04827
23.92	4.03873
23.93	4.06636
23.94	4.09137
23.95	4.08413
23.96	4.06373
23.97	4.08479
23.98	4.04235
23.99	4.03413
24	4.04564
24.01	4.06965
24.02	4.10156
24.03	4.07031
24.04	4.06505
24.05	4.07854
24.06	4.0815
24.07	4.06275
24.08	4.0486
24.09	4.07327
24.1	4.06867
24.11	4.07163
24.12	4.06011
24.13	4.04268
24.14	4.04038
24.15	4.08051
24.16	4.03939
24.17	4.08314
24.18	4.06669
24.19	4.05025
24.2	4.05748
24.21	4.08084
24.22	4.05025
24.23	4.10683
24.24	4.10485
24.25	4.04498
24.26	4.05584
24.27	4.0236
24.28	4.03117
24.29	4.08511
24.3	4.04992
24.31	4.09334
24.32	4.08742
24.33	4.05255
24.34	4.08939
24.35	4.09433
24.36	4.05386
24.37	4.08018
24.38	4.06406
24.39	4.08676
24.4	4.10452
24.41	4.06965
24.42	4.07623
24.43	4.08511
24.44	4.04761
24.45	4.06669
24.46	4.06571
24.47	4.05189
24.48	4.01439
24.49	4.04202
24.5	4.07854
24.51	4.08577
24.52	4.05057
24.53	4.03807
24.54	4.04005
24.55	4.06373
24.56	4.06768
24.57	4.07064
24.58	4.04696
24.59	4.0713
24.6	4.0759
24.61	4.06505
24.62	4.08972
24.63	4.08446
24.64	4.0861
24.65	4.08446
24.66	4.07558
24.67	4.1009
24.68	4.06439
24.69	4.1009
24.7	4.07689
24.71	4.08544
24.72	4.08248
24.73	4.05847
24.74	4.06998
24.75	4.09005
24.76	4.11176
24.77	4.05847
24.78	4.06011
24.79	4.06965
24.8	4.11867
24.81	4.07229
24.82	4.1111
24.83	4.11209
24.84	4.08873
24.85	4.0713
24.86	4.10058
24.87	4.01867
24.88	4.03149
24.89	4.09564
24.9	4.10683
24.91	4.09465
24.92	4.08018
24.93	4.04334
24.94	4.03478
24.95	4.0759
24.96	4.12591
24.97	4.07492
24.98	4.07623
24.99	4.05025
25	4.0713
25.01	4.07755
25.02	4.06209
25.03	4.05979
25.04	4.05847
25.05	4.05814
25.06	4.04531
25.07	4.04992
25.08	4.04367
25.09	4.08446
25.1	4.07886
25.11	4.07755
25.12	4.12097
25.13	4.09202
25.14	4.05025
25.15	4.09169
25.16	4.05222
25.17	4.06998
25.18	4.10683
25.19	4.09729
25.2	4.05123
25.21	4.09992
25.22	4.08117
25.23	4.069
25.24	4.06604
25.25	4.05617
25.26	4.13479
25.27	4.11801
25.28	4.07952
25.29	4.04432
25.3	4.07656
25.31	4.08051
25.32	4.0884
25.33	4.08808
25.34	4.12558
25.35	4.07623
25.36	4.05025
25.37	4.07656
25.38	4.07821
25.39	4.09926
25.4	4.0565
25.41	4.07196
25.42	4.03215
25.43	4.05518
25.44	4.08544
25.45	4.04893
25.46	4.04005
25.47	4.01965
25.48	4.0486
25.49	4.05189
25.5	4.07097
25.51	4.07426
25.52	4.05452
25.53	4.0986
25.54	4.07623
25.55	4.05025
25.56	4.07886
25.57	4.09334
25.58	4.06011
25.59	4.07294
25.6	4.06867
25.61	4.03972
25.62	4.04728
25.63	4.05913
25.64	4.06538
25.65	4.08248
25.66	4.09137
25.67	4.07985
25.68	4.01867
25.69	4.05485
25.7	4.10123
25.71	4.06209
25.72	4.0611
25.73	4.05847
25.74	4.01274
25.75	4.04761
25.76	4.05386
25.77	4.07854
25.78	4.03215
25.79	4.069
25.8	4.05419
25.81	4.0486
25.82	4.04367
25.83	4.08413
25.84	4.07393
25.85	4.08511
25.86	4.06011
25.87	4.0509
25.88	4.094
25.89	4.07623
25.9	4.07854
25.91	4.09959
25.92	4.10452
25.93	4.06077
25.94	4.10485
25.95	4.06373
25.96	4.07656
25.97	4.07393
25.98	4.09465
25.99	4.06373
26	4.09762
26.01	4.05946
26.02	4.06801
26.03	4.06538
26.04	4.08314
26.05	4.05946
26.06	4.0588
26.07	4.07492
26.08	4.06538
26.09	4.05748
26.1	4.06702
26.11	4.04334
26.12	4.06011
26.13	4.07196
26.14	4.08051
26.15	4.07294
26.16	4.06636
26.17	4.09202
26.18	4.07261
26.19	4.07854
26.2	4.08742
26.21	4.0611
26.22	4.05057
26.23	4.06636
26.24	4.09038
26.25	4.08446
26.26	4.08051
26.27	4.06998
26.28	4.06505
26.29	4.09038
26.3	4.05617
26.31	4.03281
26.32	4.06209
26.33	4.0861
26.34	4.09564
26.35	4.0815
26.36	4.11604
26.37	4.04663
26.38	4.07163
26.39	4.06998
26.4	4.06242
26.41	4.0815
26.42	4.04268
26.43	4.08281
26.44	4.10354
26.45	4.0588
26.46	4.08281
26.47	4.08018
26.48	4.03972
26.49	4.04696
26.5	4.06735
26.51	4.07426
26.52	4.05682
26.53	4.05419
26.54	4.11012
26.55	4.07261
26.56	4.07886
26.57	4.06373
26.58	4.06604
26.59	4.06209
26.6	4.06636
26.61	4.05025
26.62	4.08084
26.63	4.08709
26.64	4.12558
26.65	4.08051
26.66	4.05485
26.67	4.08314
26.68	4.07656
26.69	4.07196
26.7	4.04893
26.71	4.06077
26.72	4.02755
26.73	3.9963
26.74	4.03413
26.75	4.0509
26.76	4.06209
26.77	4.06242
26.78	4.06998
26.79	4.1009
26.8	4.05814
26.81	4.1009
26.82	4.07294
26.83	4.06439
26.84	4.08643
26.85	4.08117
26.86	4.05584
26.87	4.0611
26.88	4.094
26.89	4.10058
26.9	4.06965
26.91	4.06176
26.92	4.07689
26.93	4.10058
26.94	4.04465
26.95	4.05781
26.96	4.10584
26.97	4.10222
26.98	4.09202
26.99	4.10025
27	4.05682
27.01	4.07426
27.02	4.0815
27.03	4.04465
27.04	4.03939
27.05	4.05748
27.06	4.07525
27.07	4.04169
27.08	4.04893
27.09	4.07656
27.1	4.08215
27.11	4.04696
27.12	4.06834
27.13	4.06011
27.14	4.06735
27.15	4.04005
27.16	4.07426
27.17	4.07755
27.18	4.05715
27.19	4.06275
27.2	4.06768
27.21	4.08511
27.22	4.09926
27.23	4.05321
27.24	4.06538
27.25	4.06077
27.26	4.04794
27.27	4.06768
27.28	4.08643
27.29	4.09268
27.3	4.07558
27.31	4.07919
27.32	4.09005
27.33	4.03149
27.34	4.06669
27.35	4.06735
27.36	4.06636
27.37	4.11176
27.38	4.06834
27.39	4.06965
27.4	4.09433
27.41	4.07196
27.42	4.08709
27.43	4.05584
27.44	4.0611
27.45	4.09433
27.46	4.04235
27.47	4.03807
27.48	4.07821
27.49	4.11637
27.5	4.09564
27.51	4.07558
27.52	4.0713
27.53	4.0861
27.54	4.08873
27.55	4.07196
27.56	4.09465
27.57	4.06636
27.58	4.06242
27.59	4.10485
27.6	4.0509
27.61	4.0384
27.62	4.06077
27.63	4.04794
27.64	4.04597
27.65	4.09137
27.66	4.09531
27.67	4.02228
27.68	4.0736
27.69	4.10748
27.7	4.09498
27.71	4.06965
27.72	4.044
27.73	4.07919
27.74	4.05321
27.75	4.0634
27.76	4.05715
27.77	4.08314
27.78	4.08117
27.79	4.05781
27.8	4.06209
27.81	4.04531
27.82	4.05979
27.83	4.06143
27.84	4.04432
27.85	4.05715
27.86	4.04827
27.87	4.0384
27.88	4.01801
27.89	4.03478
27.9	4.06307
27.91	4.03709
27.92	4.0884
27.93	4.05584
27.94	4.04136
27.95	4.01965
27.96	4.05321
27.97	4.0963
27.98	4.06011
27.99	4.07196
28	4.05518
28.01	4.06307
28.02	4.04597
28.03	4.07919
28.04	4.04465
28.05	4.04367
28.06	4.05814
28.07	4.07525
28.08	4.09926
28.09	4.05715
28.1	4.08413
28.11	4.07919
28.12	4.07656
28.13	4.07393
28.14	4.10025
28.15	4.07492
28.16	4.02195
28.17	4.04071
28.18	4.06077
28.19	4.04465
28.2	4.06077
28.21	4.06044
28.22	4.06472
28.23	4.04564
28.24	4.05551
28.25	4.04696
28.26	4.02459
28.27	4.08281
28.28	4.09367
28.29	4.07031
28.3	4.03972
28.31	4.07558
28.32	4.05123
28.33	4.03347
28.34	4.04696
28.35	4.03478
28.36	4.07196
28.37	4.08051
28.38	4.04301
28.39	4.0361
28.4	4.07722
28.41	4.03939
28.42	4.09498
28.43	4.11176
28.44	4.08906
28.45	4.08577
28.46	4.06867
28.47	4.0486
28.48	4.02031
28.49	4.03774
28.5	4.05946
28.51	4.03972
28.52	4.07492
28.53	4.04696
28.54	4.06834
28.55	4.09564
28.56	4.13281
28.57	4.0736
28.58	4.03873
28.59	4.04136
28.6	4.07821
28.61	4.08511
28.62	4.04794
28.63	4.08281
28.64	4.08479
28.65	4.05584
28.66	4.03939
28.67	4.02788
28.68	4.04465
28.69	4.05551
28.7	4.07031
28.71	4.07294
28.72	4.05485
28.73	4.0213
28.74	4.06505
28.75	4.04498
28.76	4.04959
28.77	4.05518
28.78	4.06538
28.79	4.05584
28.8	4.10748
28.81	4.08084
28.82	4.03774
28.83	4.05979
28.84	4.06965
28.85	4.05913
28.86	4.03676
28.87	4.05321
28.88	4.03511
28.89	4.07097
28.9	4.08775
28.91	4.07163
28.92	4.09104
28.93	4.05452
28.94	4.04169
28.95	4.05551
28.96	4.05386
28.97	4.05617
28.98	4.0634
28.99	4.05485
29	4.08873
29.01	4.0759
29.02	4.07459
29.03	4.07196
29.04	4.09663
29.05	4.04465
29.06	4.04827
29.07	4.05222
29.08	4.04432
29.09	4.03643
29.1	4.09696
29.11	4.08906
29.12	4.06472
29.13	4.07459
29.14	4.07952
29.15	4.09334
29.16	4.08479
29.17	4.0361
29.18	4.03281
29.19	4.03413
29.2	4.05913
29.21	4.07163
29.22	4.05946
29.23	4.03347
29.24	4.05551
29.25	4.03643
29.26	4.08709
29.27	4.0611
29.28	4.02426
29.29	4.07163
29.3	4.07294
29.31	4.11472
29.32	4.09301
29.33	4.06143
29.34	4.06143
29.35	4.09202
29.36	4.08084
29.37	4.07689
29.38	4.06735
29.39	4.06735
29.4	4.08676
29.41	4.04893
29.42	4.07525
29.43	4.06143
29.44	4.10748
29.45	4.06735
29.46	4.06044
29.47	4.07196
29.48	4.0384
29.49	4.07064
29.5	4.07459
29.51	4.07064
29.52	4.06669
29.53	4.09038
29.54	4.09827
29.55	4.08117
29.56	4.07919
29.57	4.02492
29.58	4.04465
29.59	4.11044
29.6	4.06998
29.61	4.05551
29.62	4.02459
29.63	4.07426
29.64	4.09235
29.65	4.10419
29.66	4.11077
29.67	4.09005
29.68	4.06505
29.69	4.09465
29.7	4.06373
29.71	4.07854
29.72	4.08906
29.73	4.04893
29.74	4.0509
29.75	4.069
29.76	4.10354
29.77	4.07854
29.78	4.09663
29.79	4.10255
29.8	4.09992
29.81	4.07459
29.82	4.06143
29.83	4.02623
29.84	4.03117
29.85	4.05946
29.86	4.03084
29.87	4.03774
29.88	4.05123
29.89	4.06538
29.9	4.04926
29.91	4.05025
29.92	4.05321
29.93	4.04794
29.94	4.0736
29.95	4.0759
29.96	4.07261
29.97	4.02327
29.98	4.05715
29.99	4.07064
30	4.07327
30.01	4.0509
30.02	4.01011
30.03	4.03709
30.04	4.07886
30.05	4.06867
30.06	4.04268
30.07	4.05847
30.08	4.0509
30.09	4.04992
30.1	4.02886
30.11	4.08183
30.12	4.09005
30.13	4.07426
30.14	4.03314
30.15	4.07821
30.16	4.04926
30.17	4.06472
30.18	4.06143
30.19	4.05419
30.2	4.05584
30.21	4.04301
30.22	4.0463
30.23	4.03413
30.24	4.07229
30.25	4.04301
30.26	4.06505
30.27	4.1065
30.28	4.08676
30.29	4.09104
30.3	4.04663
30.31	4.04893
30.32	4.03413
30.33	4.03478
30.34	4.04071
30.35	4.04038
30.36	4.0509
30.37	4.03873
30.38	4.05847
30.39	4.04959
30.4	4.05979
30.41	4.02722
30.42	4.02327
30.43	4.07919
30.44	4.07656
30.45	4.0611
30.46	4.02886
30.47	4.06011
30.48	4.04071
30.49	4.02426
30.5	4.03446
30.51	4.07294
30.52	4.06176
30.53	4.05321
30.54	4.094
30.55	4.07558
30.56	4.05156
30.57	4.07163
30.58	4.06669
30.59	4.05353
30.6	4.03643
30.61	4.06932
30.62	4.07558
30.63	4.01044
30.64	4.02163
30.65	4.08413
30.66	4.04038
30.67	4.00748
30.68	4.05222
30.69	4.1009
30.7	4.06604
30.71	4.09433
30.72	4.06209
30.73	4.05715
30.74	4.08281
30.75	4.06275
30.76	4.02952
30.77	4.05321
30.78	4.06209
30.79	4.05057
30.8	4.06176
30.81	4.05617
30.82	4.02788
30.83	4.08281
30.84	4.09005
30.85	4.04103
30.86	4.02097
30.87	4.03676
30.88	4.06242
30.89	4.06867
30.9	4.04959
30.91	4.04597
30.92	4.08117
30.93	4.07722
30.94	4.04827
30.95	4.06538
30.96	4.04103
30.97	4.06505
30.98	4.04202
30.99	4.05222
31	4.08643
31.01	4.06472
31.02	4.0611
31.03	4.03117
31.04	4.07196
31.05	4.08709
31.06	4.06604
31.07	4.10716
31.08	4.08347
31.09	4.02952
31.1	4.04794
31.11	4.03972
31.12	4.05847
31.13	4.07031
31.14	4.09235
31.15	4.03577
31.16	4.02952
31.17	4.04761
31.18	4.05057
31.19	4.06406
31.2	4.01373
31.21	3.9861
31.22	4.01143
31.23	4.02853
31.24	4.05814
31.25	4.06307
31.26	4.03413
31.27	4.02788
31.28	4.03939
31.29	4.05617
31.3	4.06242
31.31	4.0588
31.32	4.05946
31.33	4.05748
31.34	4.05123
31.35	4.05057
31.36	4.06307
31.37	4.08742
31.38	4.08906
31.39	4.0361
31.4	4.04367
31.41	4.04071
31.42	4.05551
31.43	4.04696
31.44	4.01242
31.45	4.04498
31.46	4.03215
31.47	4.04268
31.48	4.04169
31.49	4.05321
31.5	4.0486
31.51	4.01011
31.52	4.03972
31.53	4.02886
31.54	4.01176
31.55	4.06176
31.56	4.044
31.57	4.0736
31.58	4.08314
31.59	4.03709
31.6	4.02788
31.61	4.044
31.62	4.03709
31.63	4.09498
31.64	4.10518
31.65	4.06834
31.66	4.05847
31.67	4.0815
31.68	4.08479
31.69	4.07426
31.7	4.03281
31.71	4.06143
31.72	4.05156
31.73	4.01472
31.74	4.01011
31.75	4.04465
31.76	4.04761
31.77	4.05715
31.78	4.05814
31.79	4.07294
31.8	4.05814
31.81	4.04597
31.82	4.01077
31.83	4.06932
31.84	4.05485
31.85	4.05715
31.86	4.05748
31.87	4.07294
31.88	4.07492
31.89	4.05617
31.9	4.09729
31.91	4.0634
31.92	4.0588
31.93	3.99465
31.94	4.03478
31.95	4.06011
31.96	4.02919
31.97	4.02261
31.98	4.05123
31.99	4.06669
32	4.0259
32.01	4.06472
32.02	4.0815
32.03	4.07393
32.04	4.08281
32.05	4.09104
32.06	4.02327
32.07	4.05057
32.08	4.08347
32.09	4.05913
32.1	4.05222
32.11	4.05584
32.12	4.08446
32.13	4.07031
32.14	4.1009
32.15	4.05222
32.16	4.07886
32.17	4.04498
32.18	4.06077
32.19	4.05946
32.2	4.01801
32.21	4.05025
32.22	4.04794
32.23	4.04959
32.24	4.02985
32.25	4.04169
32.26	4.06998
32.27	4.07492
32.28	4.07459
32.29	4.0213
32.3	4.00847
32.31	4.04432
32.32	4.05025
32.33	4.07689
32.34	4.06044
32.35	4.06604
32.36	4.04827
32.37	4.07163
32.38	4.06505
32.39	4.02722
32.4	4.05979
32.41	4.05814
32.42	4.04367
32.43	4.03413
32.44	4.07426
32.45	4.07196
32.46	4.05682
32.47	4.03018
32.48	4.05847
32.49	4.08676
32.5	4.03511
32.51	4.07393
32.52	4.04202
32.53	4.08413
32.54	4.01636
32.55	4.08775
32.56	4.06307
32.57	4.04038
32.58	4.07261
32.59	4.05518
32.6	4.07031
32.61	4.04038
32.62	4.04301
32.63	4.07064
32.64	4.04531
32.65	4.04334
32.66	4.06932
32.67	4.05255
32.68	4.01439
32.69	4.0236
32.7	4.02097
32.71	4.06669
32.72	4.07755
32.73	4.03347
32.74	4.03084
32.75	4.03149
32.76	4.01274
32.77	4.02459
32.78	4.04893
32.79	4.06604
32.8	4.06242
32.81	4.03478
32.82	4.05913
32.83	4.05913
32.84	4.0486
32.85	4.02689
32.86	4.044
32.87	4.03446
32.88	4.01867
32.89	4.03248
32.9	4.06176
32.91	4.05288
32.92	4.08544
32.93	4.04959
32.94	4.01603
32.95	4.04432
32.96	4.09433
32.97	4.06044
32.98	4.04597
32.99	4.00814
33	4.02788
33.01	4.03149
33.02	4.04893
33.03	4.04301
33.04	4.03051
33.05	4.00123
33.06	4.05946
33.07	4.07689
33.08	4.03676
33.09	4.01636
33.1	4.04794
33.11	4.0236
33.12	4.06768
33.13	4.0509
33.14	4.04696
33.15	4.02163
33.16	4.03314
33.17	4.04301
33.18	4.08709
33.19	4.07261
33.2	4.07525
33.21	4.05057
33.22	4.07064
33.23	4.07558
33.24	4.07327
33.25	4.04959
33.26	4.0713
33.27	4.08742
33.28	4.05748
33.29	4.03906
33.3	4.08051
33.31	4.07261
33.32	4.05189
33.33	4.03807
33.34	4.07064
33.35	4.08117
33.36	4.10058
33.37	4.12459
33.38	4.05189
33.39	4.04334
33.4	4.06801
33.41	4.03248
33.42	4.02821
33.43	4.06604
33.44	4.06932
33.45	4.03149
33.46	4.03676
33.47	4.03314
33.48	4.03478
33.49	4.08808
33.5	4.05452
33.51	4.04301
33.52	4.02755
33.53	4.04597
33.54	4.05189
33.55	4.069
33.56	4.05485
33.57	4.06604
33.58	4.03873
33.59	4.05485
33.6	4.0634
33.61	4.05189
33.62	4.09663
33.63	4.03807
33.64	4.0588
33.65	4.0509
33.66	4.03906
33.67	4.02821
33.68	4.04071
33.69	4.02163
33.7	4.03742
33.71	4.05452
33.72	4.08051
33.73	4.0588
33.74	4.08347
33.75	4.07492
33.76	4.05979
33.77	4.01603
33.78	4.07031
33.79	4.04696
33.8	4.02327
33.81	4.07985
33.82	4.06768
33.83	4.044
33.84	4.07163
33.85	4.06801
33.86	4.06176
33.87	4.0565
33.88	4.04794
33.89	4.0588
33.9	4.0611
33.91	4.02294
33.92	4.05847
33.93	4.07886
33.94	4.0338
33.95	4.02919
33.96	4.07393
33.97	4.03511
33.98	4.03742
33.99	4.05814
34	4.03413
34.01	4.07689
34.02	4.05551
34.03	4.07788
34.04	4.04696
34.05	4.03577
34.06	4.05979
34.07	4.03676
34.08	3.99399
34.09	4.00386
34.1	4.01274
34.11	4.02492
34.12	4.00978
34.13	4.02195
34.14	4.01998
34.15	4.05025
34.16	4.05814
34.17	4.03676
34.18	4.04696
34.19	4.06834
34.2	4.02755
34.21	3.99334
34.22	4.05288
34.23	4.02886
34.24	4.04136
34.25	4.06604
34.26	4.04071
34.27	4.0713
34.28	4.00452
34.29	4.04202
34.3	4.05485
34.31	4.02952
34.32	4.01209
34.33	4.04103
34.34	4.07097
34.35	4.05386
34.36	4.0486
34.37	4.04005
34.38	4.10748
34.39	4.07492
34.4	4.07689
34.41	4.08511
34.42	4.08643
34.43	4.0588
34.44	4.02985
34.45	4.04498
34.46	4.03742
34.47	4.0384
34.48	4.06044
34.49	4.07031
34.5	4.03906
34.51	4.05057
34.52	4.06965
34.53	4.05979
34.54	4.01965
34.55	4.03182
34.56	4.0486
34.57	4.03314
34.58	4.04202
34.59	4.0134
34.6	4.09071
34.61	4.07492
34.62	4.05682
34.63	4.00551
34.64	4.04038
34.65	4.06307
34.66	4.07492
34.67	4.08939
34.68	4.0611
34.69	4.05913
34.7	4.03939
34.71	4.07525
34.72	4.03182
34.73	4.03018
34.74	4.05452
34.75	4.03281
34.76	4.05057
34.77	4.05946
34.78	4.05222
34.79	4.05946
34.8	4.06373
34.81	4.03807
34.82	4.01669
34.83	4.03347
34.84	4.05156
34.85	4.05584
34.86	4.0759
34.87	4.05419
34.88	4.06406
34.89	4.01307
34.9	4.02524
34.91	4.05452
34.92	4.069
34.93	4.03084
34.94	4.05913
34.95	4.03906
34.96	4.04663
34.97	4.02952
34.98	4.0134
34.99	4.02327
35	4.0509
35.01	4.06373
35.02	4.0032
35.03	4.01176
35.04	4.03709
35.05	4.04531
35.06	4.04564
35.07	4.05156
35.08	4.07097
35.09	4.06176
35.1	4.02426
35.11	4.03182
35.12	4.06702
35.13	4.03873
35.14	4.03215
35.15	4.04465
35.16	4.04597
35.17	4.04465
35.18	4.07163
35.19	4.06143
35.2	4.08314
35.21	4.02524
35.22	4.02459
35.23	4.07196
35.24	4.04301
35.25	4.05979
35.26	4.07327
35.27	4.05814
35.28	4.0361
35.29	4.06472
35.3	4.04564
35.31	4.06998
35.32	4.03446
35.33	4.05288
35.34	4.05617
35.35	4.02459
35.36	4.04038
35.37	4.05419
35.38	4.02985
35.39	4.03248
35.4	4.05946
35.41	4.04663
35.42	4.02821
35.43	4.04959
35.44	4.05255
35.45	4.0509
35.46	4.03577
35.47	4.01011
35.48	4.05485
35.49	4.04432
35.5	4.01505
35.51	4.05255
35.52	4.04202
35.53	4.02097
35.54	4.02821
35.55	4.05123
35.56	4.05814
35.57	4.05847
35.58	4.04893
35.59	4.03018
35.6	4.08347
35.61	4.09104
35.62	4.07788
35.63	4.03972
35.64	4.03248
35.65	4.0565
35.66	4.01044
35.67	4.0213
35.68	4.07196
35.69	4.05781
35.7	4.04301
35.71	4.03347
35.72	4.06932
35.73	4.05386
35.74	4.05715
35.75	4.0634
35.76	4.04794
35.77	4.06932
35.78	3.9884
35.79	4.04367
35.8	4.04038
35.81	4.01307
35.82	4.05321
35.83	4.07097
35.84	4.07558
35.85	4.05353
35.86	4.06077
35.87	4.06998
35.88	4.04432
35.89	4.03742
35.9	4.02853
35.91	4.06472
35.92	4.07788
35.93	4.04465
35.94	4.04038
35.95	4.05979
35.96	4.01373
35.97	4.02195
35.98	4.05057
35.99	4.05814
36	4.06044
36.01	4.06867
36.02	4.06735
36.03	4.03939
36.04	4.02689
36.05	4.03478
36.06	4.03215
36.07	4.03873
36.08	4.04597
36.09	4.05321
36.1	4.01735
36.11	4.06143
36.12	4.0463
36.13	4.06011
36.14	4.03873
36.15	4.04696
36.16	4.01538
36.17	4.03182
36.18	4.03084
36.19	4.05189
36.2	4.05485
36.21	4.08742
36.22	3.99169
36.23	4.03117
36.24	4.01274
36.25	4.02623
36.26	4.02261
36.27	4.03643
36.28	4.03643
36.29	4.05518
36.3	4.03446
36.31	4.07623
36.32	4.07985
36.33	4.05123
36.34	4.05847
36.35	4.0361
36.36	4.02524
36.37	4.02656
36.38	4.03939
36.39	4.04531
36.4	4.02228
36.41	4.03248
36.42	4.0259
36.43	3.99564
36.44	4.04893
36.45	4.04235
36.46	4.01209
36.47	4.0815
36.48	4.04169
36.49	4.04696
36.5	4.05222
36.51	4.07656
36.52	4.02656
36.53	4.01867
36.54	4.06735
36.55	4.05353
36.56	4.03281
36.57	4.05913
36.58	4.06143
36.59	4.06768
36.6	4.07755
36.61	4.04992
36.62	4.05847
36.63	4.09663
36.64	4.0486
36.65	4.044
36.66	4.02886
36.67	4.04432
36.68	4.0884
36.69	4.09202
36.7	4.03511
36.71	4.05518
36.72	4.03544
36.73	4.03248
36.74	4.05715
36.75	4.02557
36.76	4.01867
36.77	4.02031
36.78	4.01867
36.79	4.03084
36.8	4.05682
36.81	4.09498
36.82	4.07097
36.83	4.06209
36.84	4.01899
36.85	4.02524
36.86	4.02788
36.87	4.03215
36.88	4.03478
36.89	4.01702
36.9	4.04268
36.91	4.06472
36.92	4.01538
36.93	4.04992
36.94	4.01998
36.95	4.05321
36.96	4.07031
36.97	4.03939
36.98	4.10058
36.99	4.03347
37	4.03807
37.01	4.05485
37.02	4.05452
37.03	3.99597
37.04	4.04334
37.05	4.06636
37.06	4.04959
37.07	4.03117
37.08	4.03018
37.09	4.0157
37.1	4.01669
37.11	4.04728
37.12	4.05057
37.13	4.00353
37.14	4.02031
37.15	4.02031
37.16	4.03774
37.17	4.09071
37.18	4.06735
37.19	4.07722
37.2	4.07854
37.21	4.01932
37.22	4.00616
37.23	4.08972
37.24	4.05452
37.25	4.03478
37.26	4.02524
37.27	4.03676
37.28	4.05814
37.29	4.03742
37.3	4.02788
37.31	4.03347
37.32	4.02261
37.33	4.03939
37.34	3.99695
37.35	4.01801
37.36	4.02426
37.37	4.00945
37.38	4.02524
37.39	4.0588
37.4	4.08808
37.41	4.01603
37.42	4.06406
37.43	4.04761
37.44	4.05189
37.45	4.069
37.46	4.02557
37.47	4.03182
37.48	4.03774
37.49	4.09268
37.5	4.04038
37.51	4.02623
37.52	4.01373
37.53	4.04696
37.54	4.00814
37.55	4.02327
37.56	4.03873
37.57	4.05123
37.58	4.03051
37.59	4.04498
37.6	4.02788
37.61	4.0338
37.62	4.03413
37.63	4.04827
37.64	4.01538
37.65	4.07097
37.66	4.03215
37.67	4.03676
37.68	4.07196
37.69	4.03774
37.7	4.0338
37.71	4.05781
37.72	4.04202
37.73	4.0565
37.74	4.05617
37.75	4.03577
37.76	4.05913
37.77	4.03742
37.78	4.03446
37.79	4.05255
37.8	4.0815
37.81	4.07064
37.82	4.02788
37.83	4.01307
37.84	4.04169
37.85	4.08577
37.86	4.04761
37.87	4.03939
37.88	4.0565
37.89	4.03511
37.9	4.04992
37.91	4.06538
37.92	4.03709
37.93	4.04728
37.94	4.03676
37.95	4.01768
37.96	4.02853
37.97	4.04465
37.98	3.99531
37.99	4.01636
38	4.04465
38.01	4.01307
38.02	4.06011
38.03	4.03446
38.04	4.04169
38.05	4.05485
38.06	4.03709
38.07	4.02195
38.08	4.01406
38.09	4.05222
38.1	4.04169
38.11	4.02195
38.12	4.01998
38.13	4.05255
38.14	4.0134
38.15	4.04926
38.16	4.07393
38.17	4.04136
38.18	4.05715
38.19	4.05288
38.2	4.02031
38.21	4.02853
38.22	4.04038
38.23	4.04202
38.24	4.044
38.25	4.07919
38.26	4.03347
38.27	4.07097
38.28	4.03643
38.29	4.0032
38.3	4.0463
38.31	4.02426
38.32	4.0611
38.33	4.04761
38.34	3.98807
38.35	4.03182
38.36	4.05452
38.37	4.06406
38.38	4.0134
38.39	4.03446
38.4	4.03643
38.41	4.01768
38.42	4.02853
38.43	4.01176
38.44	4.00288
38.45	4.04136
38.46	4.03774
38.47	4.04268
38.48	4.08314
38.49	4.05617
38.5	4.04202
38.51	4.06604
38.52	4.03577
38.53	4.02689
38.54	3.99531
38.55	4.02919
38.56	4.05189
38.57	4.03446
38.58	4.05518
38.59	4.07393
38.6	4.01768
38.61	4.01834
38.62	4.02294
38.63	4.00189
38.64	4.03511
38.65	4.02426
38.66	4.02064
38.67	4.00913
38.68	4.02689
38.69	4.02952
38.7	4.06505
38.71	4.01176
38.72	4.02755
38.73	4.04465
38.74	4.03051
38.75	4.0361
38.76	4.07821
38.77	4.03577
38.78	4.02689
38.79	4.03544
38.8	4.02853
38.81	4.05353
38.82	4.04696
38.83	4.02557
38.84	4.00748
38.85	4.0236
38.86	4.05386
38.87	4.07393
38.88	4.07229
38.89	4.05452
38.9	4.08314
38.91	4.03314
38.92	4.03643
38.93	4.01636
38.94	4.03478
38.95	4.05485
38.96	4.04959
38.97	4.02689
38.98	4.08248
38.99	4.03676
39	4.00682
39.01	4.01768
39.02	4.05255
39.03	4.01472
39.04	4.02327
39.05	4.05288
39.06	4.02689
39.07	4.044
39.08	4.05386
39.09	4.02327
39.1	4.00715
39.11	4.02064
39.12	4.04992
39.13	4.03215
39.14	4.05452
39.15	4.0259
39.16	4.0134
39.17	3.99794
39.18	4.03511
39.19	4.03511
39.2	4.01603
39.21	4.00452
39.22	4.04959
39.23	4.01373
39.24	4.01768
39.25	4.03347
39.26	4.04564
39.27	4.04071
39.28	4.02689
39.29	4.04564
39.3	4.00551
39.31	4.07064
39.32	4.05419
39.33	4.02492
39.34	4.04761
39.35	4.04926
39.36	3.99926
39.37	3.99827
39.38	4.06143
39.39	4.03742
39.4	4.04597
39.41	4.00781
39.42	4.02524
39.43	4.03182
39.44	4.01965
39.45	4.01406
39.46	4.03643
39.47	4.07952
39.48	4.06011
39.49	4.05748
39.5	4.05288
39.51	4.02623
39.52	4.0009
39.53	4.02459
39.54	4.02163
39.55	3.97097
39.56	4.04432
39.57	4.04794
39.58	4.02853
39.59	4.04663
39.6	4.02426
39.61	4.0338
39.62	4.01998
39.63	3.99334
39.64	4.02097
39.65	4.06307
39.66	4.06669
39.67	4.02952
39.68	4.05452
39.69	4.06669
39.7	4.0611
39.71	4.06834
39.72	4.07459
39.73	4.04235
39.74	4.05419
39.75	3.99991
39.76	4.02853
39.77	4.08051
39.78	4.06735
39.79	4.05617
39.8	4.07755
39.81	4.05156
39.82	4.02689
39.83	4.03347
39.84	4.07031
39.85	4.06735
39.86	4.0759
39.87	4.05814
39.88	4.06998
39.89	4.07985
39.9	4.06439
39.91	4.0611
39.92	4.04959
39.93	4.0088
39.94	4.02228
39.95	4.04794
39.96	4.01636
39.97	4.02689
39.98	4.03314
39.99	4.06143
40	4.03709
40.01	4.06472
40.02	4.02031
40.03	4.01176
40.04	4.02064
40.05	4.04893
40.06	4.05485
40.07	4.05386
40.08	4.02195
40.09	4.03643
40.1	4.05288
40.11	4.05946
40.12	4.02952
40.13	4.04005
40.14	4.03709
40.15	4.04597
40.16	4.06801
40.17	4.04268
40.18	4.05518
40.19	4.05255
40.2	4.04926
40.21	4.00452
40.22	4.04992
40.23	3.99564
40.24	4.03149
40.25	4.03084
40.26	4.02689
40.27	4.05946
40.28	4.03215
40.29	4.02426
40.3	4.04597
40.31	4.07492
40.32	4.07229
40.33	4.05748
40.34	4.0384
40.35	4.01143
40.36	4.03281
40.37	4.00913
40.38	4.06965
40.39	4.05419
40.4	4.02985
40.41	4.00814
40.42	3.99991
40.43	4.00386
40.44	4.04136
40.45	4.04136
40.46	4.08775
40.47	4.0759
40.48	4.07031
40.49	4.02919
40.5	4.07294
40.51	4.06143
40.52	4.02821
40.53	4.03939
40.54	4.04465
40.55	4.05419
40.56	4.04959
40.57	4.01472
40.58	4.03182
40.59	4.06472
40.6	4.07886
40.61	4.06077
40.62	4.07459
40.63	4.0588
40.64	4.02919
40.65	4.02623
40.66	4.04597
40.67	4.05386
40.68	4.04103
40.69	4.06209
40.7	4.09334
40.71	4.05419
40.72	4.04071
40.73	4.02327
40.74	4.04432
40.75	4.03413
40.76	4.00222
40.77	4.0463
40.78	4.08413
40.79	4.02228
40.8	4.04465
40.81	4.03446
40.82	4.01998
40.83	4.05288
40.84	4.06077
40.85	4.03413
40.86	4.02722
40.87	4.00189
40.88	4.04432
40.89	4.05682
40.9	4.05321
40.91	4.03643
40.92	4.00551
40.93	4.01406
40.94	4.03446
40.95	4.05222
40.96	4.04926
40.97	4.03182
40.98	4.05222
40.99	4.01538
41	4.04663
41.01	4.069
41.02	4.06998
41.03	4.00781
41.04	4.02886
41.05	4.01932
41.06	4.04531
41.07	4.04465
41.08	4.03676
41.09	4.04498
41.1	4.03643
41.11	4.03939
41.12	4.00945
41.13	4.03478
41.14	4.08873
41.15	4.02524
41.16	4.03215
41.17	4.04992
41.18	4.03972
41.19	4.04794
41.2	4.02426
41.21	4.03084
41.22	4.04696
41.23	4.04202
41.24	4.0259
41.25	4.01307
41.26	4.0861
41.27	4.04367
41.28	4.04564
41.29	4.00518
41.3	4.01867
41.31	4.02294
41.32	4.00748
41.33	4.05551
41.34	4.00255
41.35	4.06209
41.36	4.02031
41.37	4.05255
41.38	4.0486
41.39	4.00419
41.4	4.08018
41.41	4.04268
41.42	4.05222
41.43	4.04268
41.44	4.04103
41.45	4.04071
41.46	4.06801
41.47	4.05485
41.48	4.04334
41.49	4.0259
41.5	4.06143
41.51	4.09827
41.52	4.07492
41.53	4.0634
41.54	4.05321
41.55	4.05551
41.56	4.01209
41.57	4.03577
41.58	4.04103
41.59	4.02722
41.6	4.04465
41.61	4.03478
41.62	4.08709
41.63	4.03873
41.64	4.04926
41.65	4.03643
41.66	4.03774
41.67	4.02327
41.68	4.0338
41.69	4.01932
41.7	4.06472
41.71	4.01538
41.72	4.03446
41.73	4.03577
41.74	4.0509
41.75	4.04992
41.76	4.05255
41.77	4.05814
41.78	4.03117
41.79	4.05123
41.8	4.06768
41.81	4.02985
41.82	4.00518
41.83	4.02788
41.84	4.04071
41.85	4.01439
41.86	3.98807
41.87	3.97853
41.88	3.98972
41.89	4.01768
41.9	4.02952
41.91	4.01439
41.92	4.01603
41.93	4.07196
41.94	4.0736
41.95	4.03873
41.96	4.06077
41.97	4.0361
41.98	4.01669
41.99	4.02426
42	3.97952
42.01	4.02886
42.02	4.03709
42.03	4.04992
42.04	4.03478
42.05	4.02755
42.06	4.05057
42.07	4.04038
42.08	4.04893
42.09	4.05189
42.1	4.04926
42.11	4.04827
42.12	4.11209
42.13	4.08215
42.14	4.02886
42.15	4.03149
42.16	4.03084
42.17	4.04827
42.18	4.02886
42.19	4.06505
42.2	4.05847
42.21	4.06242
42.22	4.0509
42.23	4.02919
42.24	4.05288
42.25	4.02985
42.26	4.04893
42.27	4.02689
42.28	4.02952
42.29	4.04432
42.3	4.0463
42.31	4.04235
42.32	4.02853
42.33	4.01274
42.34	4.0134
42.35	4.03511
42.36	4.01867
42.37	4.03972
42.38	4.02294
42.39	4.04071
42.4	4.06735
42.41	4.04202
42.42	4.04498
42.43	4.05946
42.44	4.01406
42.45	4.0088
42.46	4.04959
42.47	4.02195
42.48	4.01702
42.49	4.03446
42.5	4.04564
42.51	4.04728
42.52	4.00748
42.53	4.04136
42.54	4.04202
42.55	4.03972
42.56	4.03742
42.57	4.0213
42.58	4.06571
42.59	4.0384
42.6	4.04794
42.61	4.0236
42.62	4.05156
42.63	4.05025
42.64	4.00584
42.65	4.03742
42.66	4.04169
42.67	4.04728
42.68	4.0213
42.69	4.02393
42.7	4.00452
42.71	3.98676
42.72	4.00978
42.73	4.0486
42.74	4.01867
42.75	4.00781
42.76	4.0157
42.77	4.01472
42.78	4.02722
42.79	4.01011
42.8	4.01932
42.81	4.04301
42.82	4.02459
42.83	4.01998
42.84	4.06867
42.85	4.06965
42.86	4.11242
42.87	4.0713
42.88	4.02952
42.89	4.03347
42.9	4.02557
42.91	4.03182
42.92	4.04103
42.93	4.06571
42.94	4.01636
42.95	4.02755
42.96	4.02985
42.97	4.05781
42.98	4.03018
42.99	3.99991
43	4.04926
43.01	4.04367
43.02	4.02623
43.03	4.0259
43.04	4.05255
43.05	4.03478
43.06	4.0565
43.07	4.04301
43.08	4.00715
43.09	4.04696
43.1	4.01242
43.11	4.02755
43.12	4.02492
43.13	4.02195
43.14	4.01538
43.15	4.01439
43.16	4.03084
43.17	4.03906
43.18	4.03774
43.19	4.04432
43.2	4.07196
43.21	4.06373
43.22	4.08051
43.23	4.04728
43.24	4.00978
43.25	4.03544
43.26	4.00978
43.27	4.02195
43.28	4.01998
43.29	4.03577
43.3	4.02327
43.31	4.00057
43.32	4.03807
43.33	4.0259
43.34	4.01176
43.35	4.03215
43.36	4.00353
43.37	4.02163
43.38	4.01932
43.39	4.00814
43.4	4.00584
43.41	4.03347
43.42	4.02656
43.43	4.04301
43.44	4.04367
43.45	4.04992
43.46	4.05386
43.47	4.05847
43.48	4.05222
43.49	4.07229
43.5	4.04038
43.51	4.04038
43.52	4.05057
43.53	4.05748
43.54	4.03084
43.55	4.04301
43.56	4.03446
43.57	4.05386
43.58	4.0509
43.59	4.04268
43.6	4.05682
43.61	4.04794
43.62	4.01603
43.63	4.03873
43.64	4.02722
43.65	4.06077
43.66	4.03807
43.67	4.02557
43.68	4.04202
43.69	4.0088
43.7	4.0588
43.71	4.04498
43.72	4.02097
43.73	4.0338
43.74	4.05781
43.75	4.0963
43.76	4.05025
43.77	4.03051
43.78	4.00847
43.79	4.03314
43.8	4.02952
43.81	4.0157
43.82	4.02985
43.83	4.04531
43.84	4.07261
43.85	4.09301
43.86	4.03774
43.87	4.0157
43.88	4.07854
43.89	4.03643
43.9	4.01603
43.91	4.03939
43.92	4.06044
43.93	4.06307
43.94	4.03347
43.95	3.98873
43.96	4.04432
43.97	4.03709
43.98	4.02722
43.99	4.01998
44	4.03314
44.01	4.04728
44.02	4.00452
44.03	4.02952
44.04	4.06932
44.05	4.05419
44.06	4.04301
44.07	4.01801
44.08	4.06867
44.09	4.05781
44.1	4.04103
44.11	4.05189
44.12	4.03709
44.13	4.06209
44.14	4.0236
44.15	4.01307
44.16	4.03972
44.17	4.05979
44.18	4.02689
44.19	4.03906
44.2	4.08742
44.21	4.04202
44.22	4.0384
44.23	4.02459
44.24	4.07623
44.25	4.03643
44.26	4.03544
44.27	4.02689
44.28	4.02492
44.29	4.06834
44.3	4.01735
44.31	4.04498
44.32	4.06242
44.33	4.0759
44.34	4.04136
44.35	4.03149
44.36	4.06044
44.37	4.00156
44.38	4.0259
44.39	4.03906
44.4	4.03182
44.41	4.04893
44.42	4.03643
44.43	4.07985
44.44	4.05584
44.45	4.01011
44.46	4.05156
44.47	4.06636
44.48	4.04531
44.49	4.03972
44.5	4.06439
44.51	4.04794
44.52	4.05057
44.53	4.06143
44.54	4.10189
44.55	4.07097
44.56	4.03281
44.57	4.01538
44.58	4.02853
44.59	4.01899
44.6	4.0111
44.61	4.02426
44.62	4.02261
44.63	4.04367
44.64	4.05485
44.65	4.05353
44.66	4.03774
44.67	3.99399
44.68	4.05123
44.69	4.04103
44.7	4.01932
44.71	4.01307
44.72	4.00913
44.73	4.05353
44.74	4.03511
44.75	4.02755
44.76	4.0361
44.77	4.07426
44.78	4.04169
44.79	4.07064
44.8	4.05123
44.81	4.0338
44.82	4.03939
44.83	4.01242
44.84	4.04564
44.85	4.03446
44.86	4.00189
44.87	4.05057
44.88	4.04564
44.89	4.01406
44.9	4.01011
44.91	4.03906
44.92	4.02788
44.93	4.07623
44.94	4.04663
44.95	4.05189
44.96	4.07261
44.97	4.04038
44.98	4.04367
44.99	4.04696
45	3.9713
45.01	4.00913
45.02	4.01636
45.03	4.02228
45.04	4.01867
45.05	4.01439
45.06	4.01505
45.07	4.05025
45.08	3.9963
45.09	4.02557
45.1	4.04498
45.11	3.9884
45.12	3.9986
45.13	4.0009
45.14	4.04334
45.15	4.03676
45.16	4.02261
45.17	4.0634
45.18	4.07097
45.19	4.05321
45.2	4.03676
45.21	4.01505
45.22	4.01768
45.23	4.03182
45.24	4.03577
45.25	4.05781
45.26	4.01801
45.27	4.03215
45.28	4.01735
45.29	4.04926
45.3	4.07854
45.31	4.05485
45.32	4.01176
45.33	4.02327
45.34	4.03051
45.35	3.99268
45.36	4.05979
45.37	4.04794
45.38	4.04498
45.39	4.04761
45.4	4.03511
45.41	4.01768
45.42	4.04367
45.43	4.05353
45.44	4.07031
45.45	4.07064
45.46	4.02261
45.47	4.01439
45.48	4.06011
45.49	4.01735
45.5	4.04893
45.51	4.06538
45.52	4.04268
45.53	4.04531
45.54	4.04728
45.55	4.05913
45.56	4.0463
45.57	4.06011
45.58	4.0338
45.59	4.04893
45.6	4.0361
45.61	4.01801
45.62	4.01209
45.63	4.01538
45.64	4.0236
45.65	4.02985
45.66	4.07196
45.67	4.02393
45.68	4.06571
45.69	4.05748
45.7	3.99531
45.71	3.99169
45.72	4.03676
45.73	4.0486
45.74	4.01603
45.75	4.05682
45.76	4.06538
45.77	4.02557
45.78	4.04005
45.79	4.04235
45.8	4.06735
45.81	4.02097
45.82	4.0565
45.83	4.04103
45.84	4.00452
45.85	4.04038
45.86	4.07788
45.87	4.04564
45.88	4.0565
45.89	4.05946
45.9	4.02788
45.91	4.04794
45.92	4.02426
45.93	4.05781
45.94	4.03906
45.95	4.01801
45.96	4.03972
45.97	4.0259
45.98	4.03774
45.99	4.03182
46	4.03906
46.01	4.0236
46.02	4.00616
46.03	4.01735
46.04	3.9986
46.05	4.00913
46.06	4.01735
46.07	4.04728
46.08	4.07985
46.09	4.04169
46.1	4.04531
46.11	4.02294
46.12	4.05847
46.13	4.09334
46.14	4.03577
46.15	4.01899
46.16	3.99761
46.17	3.99169
46.18	4.02722
46.19	4.02623
46.2	4.04597
46.21	4.0236
46.22	4.04169
46.23	4.06669
46.24	4.11998
46.25	4.04663
46.26	4.03577
46.27	4.04992
46.28	4.03643
46.29	4.04531
46.3	4.05419
46.31	4.06242
46.32	4.07886
46.33	4.06373
46.34	4.00913
46.35	4.05551
46.36	4.00518
46.37	4.02492
46.38	4.07064
46.39	4.02722
46.4	4.03182
46.41	4.03446
46.42	4.05518
46.43	4.03939
46.44	4.05025
46.45	4.03314
46.46	4.05617
46.47	3.99827
46.48	3.99334
46.49	4.02393
46.5	4.07229
46.51	4.02656
46.52	4.01834
46.53	4.04827
46.54	4.01011
46.55	4.03939
46.56	4.05255
46.57	4.05847
46.58	4.03807
46.59	4.04531
46.6	4.06373
46.61	4.03478
46.62	4.02426
46.63	4.09663
46.64	4.06505
46.65	4.07459
46.66	4.0611
46.67	4.05123
46.68	4.02722
46.69	4.01242
46.7	4.03117
46.71	4.01702
46.72	4.04235
46.73	4.03577
46.74	4.0236
46.75	4.07261
46.76	4.07886
46.77	4.05156
46.78	4.04301
46.79	4.04498
46.8	4.02294
46.81	4.05814
46.82	4.069
46.83	4.07229
46.84	4.09794
46.85	4.04465
46.86	4.01307
46.87	4.04761
46.88	4.01505
46.89	4.04597
46.9	4.03939
46.91	4.01242
46.92	4.03643
46.93	4.06867
46.94	4.0157
46.95	3.99959
46.96	4.01669
46.97	4.02919
46.98	4.03774
46.99	4.04235
47	4.03544
47.01	4.05452
47.02	4.04761
47.03	4.0713
47.04	4.02097
47.05	4.03906
47.06	4.06505
47.07	4.08873
47.08	4.03939
47.09	4.03149
47.1	4.04531
47.11	4.06834
47.12	4.04926
47.13	4.06044
47.14	4.02327
47.15	4.00189
47.16	4.02952
47.17	4.02722
47.18	4.01307
47.19	4.0338
47.2	4.01965
47.21	4.01669
47.22	4.04498
47.23	4.01406
47.24	3.99202
47.25	4.0565
47.26	4.06472
47.27	4.01143
47.28	4.02722
47.29	4.02985
47.3	4.03478
47.31	4.05057
47.32	4.02097
47.33	4.01307
47.34	4.01702
47.35	4.01867
47.36	4.05452
47.37	4.03446
47.38	4.02459
47.39	4.03347
47.4	4.06143
47.41	4.02195
47.42	4.06834
47.43	4.05419
47.44	4.03084
47.45	4.01143
47.46	4.0588
47.47	4.05222
47.48	4.05979
47.49	4.04465
47.5	4.05057
47.51	4.05814
47.52	4.04728
47.53	4.06406
47.54	3.98445
47.55	4.00781
47.56	4.0384
47.57	4.03051
47.58	4.04169
47.59	4.04926
47.6	4.04728
47.61	4.06275
47.62	4.08709
47.63	4.05814
47.64	4.02195
47.65	4.05913
47.66	4.03478
47.67	4.00945
47.68	4.02064
47.69	4.0611
47.7	4.05913
47.71	4.06077
47.72	4.02327
47.73	4.0134
47.74	4.03873
47.75	4.04334
47.76	4.04663
47.77	4.04136
47.78	4.04663
47.79	4.01702
47.8	4.04005
47.81	4.02557
47.82	3.99827
47.83	4.00485
47.84	4.01636
47.85	4.05913
47.86	4.02064
47.87	4.00386
47.88	4.0486
47.89	4.05584
47.9	4.05748
47.91	4.04498
47.92	4.05485
47.93	4.02886
47.94	4.04103
47.95	4.03676
47.96	4.04827
47.97	4.02459
47.98	4.05353
47.99	4.04432
48	4.06176
48.01	4.02689
48.02	4.07525
48.03	4.04334
48.04	4.03413
48.05	4.04202
48.06	4.06044
48.07	4.00913
48.08	4.0486
48.09	4.02623
48.1	4.00781
48.11	4.03248
48.12	4.02952
48.13	4.05386
48.14	4.04301
48.15	4.02097
48.16	4.03117
48.17	4.03347
48.18	4.02557
48.19	3.99827
48.2	4.03117
48.21	4.03051
48.22	4.0384
48.23	4.03182
48.24	4.03643
48.25	4.00452
48.26	4.02886
48.27	4.03084
48.28	4.00255
48.29	3.99564
48.3	4.02492
48.31	4.06275
48.32	3.99432
48.33	4.00353
48.34	4.05913
48.35	4.0463
48.36	4.01373
48.37	4.01011
48.38	4.03544
48.39	4.02853
48.4	4.02097
48.41	4.01932
48.42	4.06998
48.43	4.04432
48.44	4.05748
48.45	4.06143
48.46	4.00419
48.47	4.06077
48.48	4.03544
48.49	4.03544
48.5	4.03478
48.51	3.99465
48.52	4.07656
48.53	4.03774
48.54	4.02919
48.55	4.02886
48.56	4.01274
48.57	4.04071
48.58	4.05057
48.59	4.03347
48.6	4.0213
48.61	4.02097
48.62	4.03149
48.63	4.02393
48.64	4.04465
48.65	4.02985
48.66	3.99235
48.67	4.04071
48.68	4.0588
48.69	4.06768
48.7	4.00353
48.71	4.04038
48.72	4.05123
48.73	4.03084
48.74	4.03906
48.75	4.01998
48.76	4.01998
48.77	4.01867
48.78	4.02261
48.79	4.06604
48.8	4.06538
48.81	4.03939
48.82	4.04038
48.83	4.04893
48.84	4.01636
48.85	4.03117
48.86	4.00682
48.87	4.03084
48.88	3.99761
48.89	4.04531
48.9	4.03511
48.91	4.01143
48.92	4.02097
48.93	4.01998
48.94	4.02031
48.95	4.05518
48.96	4.06406
48.97	4.03972
48.98	4.01209
48.99	4.03774
49	4.02919
49.01	4.02656
49.02	4.03972
49.03	4.07919
49.04	4.05353
49.05	4.05353
49.06	4.0213
49.07	4.01801
49.08	4.02689
49.09	4.03117
49.1	4.01406
49.11	4.01801
49.12	4.04663
49.13	4.06275
49.14	4.03643
49.15	4.0009
49.16	4.01965
49.17	4.07261
49.18	4.02393
49.19	4.03577
49.2	4.04531
49.21	4.02393
49.22	4.04268
49.23	4.03643
49.24	4.06669
49.25	4.05321
49.26	4.07623
49.27	4.03544
49.28	4.03709
49.29	4.02064
49.3	4.03643
49.31	4.04367
49.32	4.02524
49.33	4.02689
49.34	4.05946
49.35	4.0259
49.36	4.03084
49.37	4.04005
49.38	4.00781
49.39	4.07426
49.4	4.05617
49.41	4.0384
49.42	4.04301
49.43	4.03643
49.44	4.02886
49.45	4.01998
49.46	4.01702
49.47	4.01899
49.48	4.08676
49.49	4.06505
49.5	4.05715
49.51	4.03906
49.52	4.03084
49.53	4.02853
49.54	4.03314
49.55	4.04367
49.56	4.03676
49.57	3.9838
49.58	3.99728
49.59	4.05353
49.6	4.03051
49.61	4.05255
49.62	4.04005
49.63	4.05682
49.64	4.03117
49.65	4.04136
49.66	4.02492
49.67	4.01965
49.68	4.00057
49.69	4.03413
49.7	4.06209
49.71	4.05518
49.72	4.04761
49.73	4.04959
49.74	4.04005
49.75	4.02426
49.76	4.04005
49.77	4.01242
49.78	4.05255
49.79	4.0032
49.8	4.01274
49.81	4.0588
49.82	4.07558
49.83	4.04597
49.84	4.02294
49.85	4.06439
49.86	4.02459
49.87	4.04202
49.88	4.0611
49.89	4.06768
49.9	4.05189
49.91	4.01242
49.92	4.01965
49.93	4.0634
49.94	4.02952
49.95	4.01274
49.96	4.06669
49.97	4.08314
49.98	4.04071
49.99	4.04432
50	4.0361
