"BIO-KINE ASCII FILE"
"_COMMENT"	"MOS-500 Spectrometer"
"_COMMENT"	"Kinetics measurement"
"_COMMENT"	"Y Unit : Volt,  X Unit : s"
"_COMMENT"	"Excitation wavelength : 380 nm"
"_COMMENT"	"Fentes bandwidth =  1 nm"
"_COMMENT"	"HV= 700V"
"_COMMENT"	"Timebase  1 =  .01 s   3001 pts"
"_SFM"	"SFM-400 /S  Advanced mode"
"_SFM"	"Ratio : S1: 2.5, S2: 0, S3: 0, S4: 1"
"_SFM"	"Content : S1: , S2: , S3: , S4:"
"_SFM"	"Concentration : S1: , S2: , S3: , S4:"
"_SFM"	"Total volume : 209 µl  Flow : 3.5 mL/s"
"_SFM"	"Acquisition start :  10 ms before stop"
"_SFM"	"cuve=FC-15, s1=10 ml , s2=10 ml , s3=10 ml , s4=1.9 ml"
"_UNITX"	"s"
"_UNITY"	"Volt"
"_DELTAX"	0
"_DATA"
1e-300	7.92536
0.01	8.51978
0.02	8.68985
0.03	8.80038
0.04	8.81222
0.05	8.81616
0.06	8.83919
0.07	8.83524
0.08	8.84182
0.09	8.82406
0.1	8.83393
0.11	8.83163
0.12	8.82998
0.13	8.83163
0.14	8.82965
0.15	8.82932
0.16	8.83492
0.17	8.84478
0.18	8.84544
0.19	8.84018
0.2	8.81551
0.21	8.80893
0.22	8.82932
0.23	8.8086
0.24	8.8007
0.25	8.7984
0.26	8.78426
0.27	8.78327
0.28	8.77472
0.29	8.78195
0.3	8.77406
0.31	8.77044
0.32	8.75827
0.33	8.74939
0.34	8.73524
0.35	8.73985
0.36	8.74149
0.37	8.7336
0.38	8.72801
0.39	8.72439
0.4	8.73162
0.41	8.71649
0.42	8.71945
0.43	8.70366
0.44	8.70465
0.45	8.69149
0.46	8.68327
0.47	8.67866
0.48	8.67932
0.49	8.6836
0.5	8.67504
0.51	8.66123
0.52	8.64577
0.53	8.6461
0.54	8.64346
0.55	8.62866
0.56	8.63294
0.57	8.62932
0.58	8.6234
0.59	8.62175
0.6	8.59905
0.61	8.60531
0.62	8.58853
0.63	8.58063
0.64	8.58886
0.65	8.56813
0.66	8.57044
0.67	8.56451
0.68	8.55892
0.69	8.54642
0.7	8.54478
0.71	8.53622
0.72	8.53721
0.73	8.50859
0.74	8.50497
0.75	8.51024
0.76	8.50596
0.77	8.50497
0.78	8.49478
0.79	8.48359
0.8	8.48162
0.81	8.47964
0.82	8.4576
0.83	8.46813
0.84	8.46221
0.85	8.44675
0.86	8.453
0.87	8.42931
0.88	8.43491
0.89	8.44017
0.9	8.42734
0.91	8.41747
0.92	8.40727
0.93	8.3951
0.94	8.3928
0.95	8.39839
0.96	8.3905
0.97	8.37635
0.98	8.36944
0.99	8.378
1	8.34938
1.01	8.33523
1.02	8.35365
1.03	8.33589
1.04	8.3178
1.05	8.32635
1.06	8.32043
1.07	8.29707
1.08	8.29346
1.09	8.29477
1.1	8.28918
1.11	8.27438
1.12	8.27898
1.13	8.26944
1.14	8.25464
1.15	8.24938
1.16	8.25859
1.17	8.22997
1.18	8.22207
1.19	8.22076
1.2	8.21319
1.21	8.20003
1.22	8.19444
1.23	8.19707
1.24	8.17898
1.25	8.18359
1.26	8.16911
1.27	8.1599
1.28	8.17273
1.29	8.16352
1.3	8.15431
1.31	8.15233
1.32	8.15595
1.33	8.13819
1.34	8.12733
1.35	8.12733
1.36	8.12174
1.37	8.1326
1.38	8.10628
1.39	8.10694
1.4	8.09707
1.41	8.09871
1.42	8.09904
1.43	8.0701
1.44	8.0645
1.45	8.07306
1.46	8.05431
1.47	8.05792
1.48	8.05595
1.49	8.04312
1.5	8.04312
1.51	8.03556
1.52	8.03424
1.53	8.01187
1.54	8.00266
1.55	7.98457
1.56	7.98588
1.57	7.9895
1.58	7.99444
1.59	7.96286
1.6	7.96582
1.61	7.96351
1.62	7.93917
1.63	7.93983
1.64	7.92404
1.65	7.91943
1.66	7.90529
1.67	7.89476
1.68	7.89608
1.69	7.90364
1.7	7.8872
1.71	7.86713
1.72	7.87667
1.73	7.87338
1.74	7.86351
1.75	7.85364
1.76	7.84608
1.77	7.84081
1.78	7.83127
1.79	7.84081
1.8	7.827
1.81	7.81483
1.82	7.81351
1.83	7.80989
1.84	7.78687
1.85	7.78062
1.86	7.76976
1.87	7.77502
1.88	7.76351
1.89	7.76417
1.9	7.75068
1.91	7.75759
1.92	7.73982
1.93	7.72897
1.94	7.73489
1.95	7.72305
1.96	7.71417
1.97	7.71088
1.98	7.71581
1.99	7.69344
2	7.69443
2.01	7.68982
2.02	7.6737
2.03	7.6612
2.04	7.66745
2.05	7.65627
2.06	7.65528
2.07	7.6316
2.08	7.63785
2.09	7.62864
2.1	7.61745
2.11	7.62272
2.12	7.62272
2.13	7.60133
2.14	7.59508
2.15	7.58818
2.16	7.58489
2.17	7.56482
2.18	7.57765
2.19	7.57962
2.2	7.55528
2.21	7.54804
2.22	7.54311
2.23	7.54015
2.24	7.52831
2.25	7.53982
2.26	7.53719
2.27	7.51745
2.28	7.51021
2.29	7.49377
2.3	7.4862
2.31	7.49212
2.32	7.47929
2.33	7.47798
2.34	7.47337
2.35	7.46317
2.36	7.46679
2.37	7.4464
2.38	7.44673
2.39	7.44475
2.4	7.43192
2.41	7.40593
2.42	7.41416
2.43	7.41383
2.44	7.39903
2.45	7.39936
2.46	7.38389
2.47	7.38751
2.48	7.3885
2.49	7.38389
2.5	7.37238
2.51	7.3658
2.52	7.37304
2.53	7.36646
2.54	7.34409
2.55	7.33817
2.56	7.3431
2.57	7.32896
2.58	7.34146
2.59	7.3033
2.6	7.30988
2.61	7.31613
2.62	7.29212
2.63	7.28784
2.64	7.27994
2.65	7.27994
2.66	7.27205
2.67	7.26448
2.68	7.26909
2.69	7.25297
2.7	7.25955
2.71	7.23126
2.72	7.23126
2.73	7.22632
2.74	7.23192
2.75	7.22172
2.76	7.21054
2.77	7.19244
2.78	7.19639
2.79	7.18718
2.8	7.17961
2.81	7.17928
2.82	7.17665
2.83	7.17501
2.84	7.17303
2.85	7.15297
2.86	7.13882
2.87	7.1431
2.88	7.13553
2.89	7.11514
2.9	7.12468
2.91	7.12534
2.92	7.11941
2.93	7.10823
2.94	7.09902
2.95	7.09277
2.96	7.09178
2.97	7.08751
2.98	7.08685
2.99	7.06119
3	7.06415
3.01	7.04902
3.02	7.05132
3.03	7.04935
3.04	7.05527
3.05	7.04836
3.06	7.03191
3.07	7.02171
3.08	7.02106
3.09	7.01546
3.1	7.01612
3.11	7.00395
3.12	6.99902
3.13	6.98816
3.14	6.98454
3.15	6.99573
3.16	6.9648
3.17	6.95494
3.18	6.95724
3.19	6.96415
3.2	6.95132
3.21	6.95296
3.22	6.94013
3.23	6.93125
3.24	6.92336
3.25	6.90987
3.26	6.90822
3.27	6.90263
3.28	6.89408
3.29	6.89112
3.3	6.8773
3.31	6.88026
3.32	6.87566
3.33	6.87138
3.34	6.87039
3.35	6.85724
3.36	6.84803
3.37	6.83158
3.38	6.83224
3.39	6.83684
3.4	6.82039
3.41	6.80855
3.42	6.80987
3.43	6.79638
3.44	6.8148
3.45	6.79408
3.46	6.78125
3.47	6.77664
3.48	6.77796
3.49	6.75987
3.5	6.77072
3.51	6.75427
3.52	6.7523
3.53	6.75592
3.54	6.74572
3.55	6.7319
3.56	6.73125
3.57	6.71546
3.58	6.7171
3.59	6.70822
3.6	6.7069
3.61	6.69671
3.62	6.69605
3.63	6.69111
3.64	6.68947
3.65	6.68848
3.66	6.69407
3.67	6.67039
3.68	6.66414
3.69	6.66151
3.7	6.65756
3.71	6.64374
3.72	6.64177
3.73	6.63815
3.74	6.6296
3.75	6.62762
3.76	6.62828
3.77	6.62598
3.78	6.61907
3.79	6.61381
3.8	6.61216
3.81	6.59999
3.82	6.60295
3.83	6.58387
3.84	6.58914
3.85	6.57894
3.86	6.58716
3.87	6.5921
3.88	6.57927
3.89	6.5796
3.9	6.57006
3.91	6.55591
3.92	6.54506
3.93	6.53321
3.94	6.5365
3.95	6.53519
3.96	6.53848
3.97	6.53683
3.98	6.5217
3.99	6.50657
4	6.51348
4.01	6.51019
4.02	6.49769
4.03	6.499
4.04	6.49045
4.05	6.47927
4.06	6.47927
4.07	6.4865
4.08	6.45755
4.09	6.45854
4.1	6.4569
4.11	6.45854
4.12	6.45525
4.13	6.44473
4.14	6.449
4.15	6.43519
4.16	6.43222
4.17	6.42959
4.18	6.41413
4.19	6.41512
4.2	6.40755
4.21	6.39768
4.22	6.39209
4.23	6.3888
4.24	6.39637
4.25	6.39012
4.26	6.38518
4.27	6.36347
4.28	6.3717
4.29	6.37268
4.3	6.36874
4.31	6.34735
4.32	6.33749
4.33	6.33452
4.34	6.34209
4.35	6.33255
4.36	6.32762
4.37	6.31841
4.38	6.31972
4.39	6.32268
4.4	6.29867
4.41	6.30689
4.42	6.29637
4.43	6.29439
4.44	6.29505
4.45	6.28913
4.46	6.26314
4.47	6.26972
4.48	6.26511
4.49	6.27169
4.5	6.26577
4.51	6.25097
4.52	6.24604
4.53	6.24275
4.54	6.24932
4.55	6.22301
4.56	6.23222
4.57	6.23979
4.58	6.23518
4.59	6.21939
4.6	6.21117
4.61	6.21742
4.62	6.2059
4.63	6.19406
4.64	6.20228
4.65	6.2059
4.66	6.19077
4.67	6.19077
4.68	6.16873
4.69	6.17169
4.7	6.17597
4.71	6.15031
4.72	6.1536
4.73	6.15623
4.74	6.14965
4.75	6.14834
4.76	6.15491
4.77	6.13616
4.78	6.12301
4.79	6.12728
4.8	6.11774
4.81	6.11379
4.82	6.11544
4.83	6.11478
4.84	6.11149
4.85	6.10097
4.86	6.09998
4.87	6.0957
4.88	6.08814
4.89	6.09011
4.9	6.08057
4.91	6.06642
4.92	6.06445
4.93	6.07037
4.94	6.07366
4.95	6.05919
4.96	6.03978
4.97	6.04669
4.98	6.04965
4.99	6.03813
5	6.03978
5.01	6.04175
5.02	6.02859
5.03	6.03123
5.04	6.03386
5.05	6.01873
5.06	6.00524
5.07	6.0105
5.08	5.99504
5.09	5.9934
5.1	6.00294
5.11	5.98748
5.12	5.97761
5.13	5.98451
5.14	5.96938
5.15	5.97366
5.16	5.96412
5.17	5.96017
5.18	5.96609
5.19	5.95359
5.2	5.95886
5.21	5.94636
5.22	5.93353
5.23	5.94471
5.24	5.94405
5.25	5.94109
5.26	5.93418
5.27	5.92761
5.28	5.91807
5.29	5.92399
5.3	5.92629
5.31	5.91642
5.32	5.91116
5.33	5.9082
5.34	5.89833
5.35	5.89997
5.36	5.89964
5.37	5.88649
5.38	5.8901
5.39	5.88813
5.4	5.89701
5.41	5.87727
5.42	5.85458
5.43	5.85951
5.44	5.86543
5.45	5.86576
5.46	5.86313
5.47	5.86083
5.48	5.85655
5.49	5.85458
5.5	5.85326
5.51	5.84241
5.52	5.84931
5.53	5.84405
5.54	5.84734
5.55	5.83714
5.56	5.82596
5.57	5.82267
5.58	5.82234
5.59	5.83122
5.6	5.82267
5.61	5.82431
5.62	5.81444
5.63	5.80359
5.64	5.79504
5.65	5.79339
5.66	5.78319
5.67	5.77957
5.68	5.77431
5.69	5.76444
5.7	5.76378
5.71	5.77464
5.72	5.77267
5.73	5.77102
5.74	5.76444
5.75	5.75326
5.76	5.75128
5.77	5.76247
5.78	5.74767
5.79	5.73681
5.8	5.73023
5.81	5.7299
5.82	5.73615
5.83	5.72168
5.84	5.71444
5.85	5.72003
5.86	5.70391
5.87	5.70984
5.88	5.70786
5.89	5.70391
5.9	5.7026
5.91	5.69207
5.92	5.69141
5.93	5.69964
5.94	5.69997
5.95	5.70128
5.96	5.70128
5.97	5.68582
5.98	5.69372
5.99	5.68911
6	5.67891
6.01	5.6799
6.02	5.6776
6.03	5.68352
6.04	5.66674
6.05	5.66707
6.06	5.66247
6.07	5.65358
6.08	5.6651
6.09	5.65622
6.1	5.647
6.11	5.63253
6.12	5.6447
6.13	5.64799
6.14	5.6401
6.15	5.6345
6.16	5.63845
6.17	5.60556
6.18	5.61575
6.19	5.61214
6.2	5.59865
6.21	5.59996
6.22	5.60062
6.23	5.60029
6.24	5.58253
6.25	5.58681
6.26	5.58417
6.27	5.57957
6.28	5.5799
6.29	5.57233
6.3	5.56148
6.31	5.56542
6.32	5.5674
6.33	5.56411
6.34	5.55391
6.35	5.55917
6.36	5.5595
6.37	5.54799
6.38	5.54404
6.39	5.54503
6.4	5.5447
6.41	5.55128
6.42	5.5322
6.43	5.53253
6.44	5.5299
6.45	5.53549
6.46	5.53351
6.47	5.53088
6.48	5.5197
6.49	5.53351
6.5	5.52332
6.51	5.51904
6.52	5.52266
6.53	5.50193
6.54	5.50588
6.55	5.50884
6.56	5.50786
6.57	5.5072
6.58	5.50325
6.59	5.50391
6.6	5.50128
6.61	5.50292
6.62	5.49371
6.63	5.50095
6.64	5.49733
6.65	5.49503
6.66	5.48845
6.67	5.47397
6.68	5.47299
6.69	5.47924
6.7	5.4697
6.71	5.46378
6.72	5.46772
6.73	5.46608
6.74	5.45489
6.75	5.4595
6.76	5.46312
6.77	5.45095
6.78	5.4516
6.79	5.44996
6.8	5.44667
6.81	5.45029
6.82	5.43746
6.83	5.43187
6.84	5.42627
6.85	5.42693
6.86	5.43285
6.87	5.42463
6.88	5.42825
6.89	5.41443
6.9	5.4197
6.91	5.42726
6.92	5.41081
6.93	5.39634
6.94	5.40621
6.95	5.4072
6.96	5.40851
6.97	5.40654
6.98	5.39305
6.99	5.38614
7	5.3868
7.01	5.38351
7.02	5.38384
7.03	5.39009
7.04	5.38022
7.05	5.38187
7.06	5.38055
7.07	5.3789
7.08	5.37068
7.09	5.37627
7.1	5.3641
7.11	5.3641
7.12	5.36509
7.13	5.36805
7.14	5.35621
7.15	5.35127
7.16	5.33976
7.17	5.34601
7.18	5.35292
7.19	5.34963
7.2	5.33055
7.21	5.33647
7.22	5.33976
7.23	5.33186
7.24	5.32759
7.25	5.32496
7.26	5.33088
7.27	5.33154
7.28	5.32364
7.29	5.31509
7.3	5.30555
7.31	5.322
7.32	5.32496
7.33	5.31476
7.34	5.31673
7.35	5.31706
7.36	5.30028
7.37	5.29732
7.38	5.28844
7.39	5.30259
7.4	5.29831
7.41	5.29634
7.42	5.29009
7.43	5.2914
7.44	5.2937
7.45	5.29074
7.46	5.29173
7.47	5.27397
7.48	5.27824
7.49	5.28219
7.5	5.27792
7.51	5.27002
7.52	5.26541
7.53	5.26706
7.54	5.27331
7.55	5.27331
7.56	5.26805
7.57	5.25324
7.58	5.25324
7.59	5.25456
7.6	5.26344
7.61	5.2539
7.62	5.25127
7.63	5.24008
7.64	5.25752
7.65	5.24436
7.66	5.24699
7.67	5.25653
7.68	5.24831
7.69	5.2437
7.7	5.23186
7.71	5.23055
7.72	5.23087
7.73	5.23022
7.74	5.21804
7.75	5.21245
7.76	5.21443
7.77	5.22166
7.78	5.22857
7.79	5.22331
7.8	5.21772
7.81	5.20982
7.82	5.21114
7.83	5.20982
7.84	5.20785
7.85	5.2141
7.86	5.20587
7.87	5.20982
7.88	5.20258
7.89	5.21015
7.9	5.19897
7.91	5.196
7.92	5.20127
7.93	5.19041
7.94	5.18186
7.95	5.18482
7.96	5.18679
7.97	5.18482
7.98	5.19272
7.99	5.18877
8	5.18252
8.01	5.17429
8.02	5.18087
8.03	5.17791
8.04	5.16574
8.05	5.16936
8.06	5.1812
8.07	5.17298
8.08	5.17133
8.09	5.17002
8.1	5.17035
8.11	5.16146
8.12	5.15456
8.13	5.15258
8.14	5.16081
8.15	5.15949
8.16	5.14699
8.17	5.15324
8.18	5.15554
8.19	5.15423
8.2	5.15653
8.21	5.14666
8.22	5.15028
8.23	5.1516
8.24	5.14337
8.25	5.14271
8.26	5.13186
8.27	5.14633
8.28	5.13219
8.29	5.12988
8.3	5.13252
8.31	5.12067
8.32	5.11969
8.33	5.12725
8.34	5.12034
8.35	5.12298
8.36	5.11113
8.37	5.11179
8.38	5.11969
8.39	5.1108
8.4	5.11673
8.41	5.11673
8.42	5.1108
8.43	5.10521
8.44	5.11541
8.45	5.11541
8.46	5.10817
8.47	5.0983
8.48	5.1085
8.49	5.10554
8.5	5.09699
8.51	5.10521
8.52	5.096
8.53	5.10982
8.54	5.1039
8.55	5.0858
8.56	5.09074
8.57	5.09238
8.58	5.08054
8.59	5.08054
8.6	5.08383
8.61	5.07528
8.62	5.07232
8.63	5.07297
8.64	5.06574
8.65	5.06672
8.66	5.07297
8.67	5.07791
8.68	5.071
8.69	5.06738
8.7	5.08284
8.71	5.06903
8.72	5.05686
8.73	5.06047
8.74	5.06343
8.75	5.07034
8.76	5.06475
8.77	5.05784
8.78	5.05751
8.79	5.0585
8.8	5.05422
8.81	5.05949
8.82	5.06179
8.83	5.06015
8.84	5.05653
8.85	5.04797
8.86	5.03679
8.87	5.03679
8.88	5.04271
8.89	5.0539
8.9	5.03449
8.91	5.04501
8.92	5.04929
8.93	5.04797
8.94	5.04041
8.95	5.03811
8.96	5.03087
8.97	5.0335
8.98	5.03284
8.99	5.02922
9	5.02133
9.01	5.02462
9.02	5.02067
9.03	5.02396
9.04	5.02232
9.05	5.02626
9.06	5.02067
9.07	5.02626
9.08	5.01376
9.09	5.01672
9.1	5.00916
9.11	5.01837
9.12	5.01113
9.13	5.00389
9.14	5.00488
9.15	5.00784
9.16	5.02034
9.17	4.99995
9.18	5.01278
9.19	5.00784
9.2	5.00587
9.21	5.02462
9.22	5.00653
9.23	5.00126
9.24	5.00718
9.25	5.00817
9.26	5.00751
9.27	4.99567
9.28	4.99435
9.29	4.99008
9.3	4.99764
9.31	5.00521
9.32	4.99534
9.33	5.00126
9.34	4.99929
9.35	4.98909
9.36	4.99633
9.37	4.99435
9.38	4.99929
9.39	4.99172
9.4	4.9858
9.41	4.99337
9.42	4.98679
9.43	4.98481
9.44	4.99238
9.45	4.98679
9.46	4.97692
9.47	4.97495
9.48	4.97725
9.49	4.96902
9.5	4.97527
9.51	4.98679
9.52	4.97955
9.53	4.97988
9.54	4.97593
9.55	4.97495
9.56	4.98087
9.57	4.97626
9.58	4.96606
9.59	4.98383
9.6	4.97495
9.61	4.97231
9.62	4.96738
9.63	4.96376
9.64	4.95323
9.65	4.95784
9.66	4.95916
9.67	4.9608
9.68	4.95323
9.69	4.96047
9.7	4.95258
9.71	4.94501
9.72	4.9608
9.73	4.95948
9.74	4.95291
9.75	4.94633
9.76	4.9483
9.77	4.9483
9.78	4.95225
9.79	4.95389
9.8	4.95389
9.81	4.95817
9.82	4.95126
9.83	4.9404
9.84	4.93547
9.85	4.93712
9.86	4.94304
9.87	4.95291
9.88	4.93514
9.89	4.93185
9.9	4.93909
9.91	4.93876
9.92	4.9381
9.93	4.93547
9.94	4.93646
9.95	4.93942
9.96	4.94139
9.97	4.93087
9.98	4.93119
9.99	4.92461
10	4.91606
10.01	4.92198
10.02	4.92297
10.03	4.92231
10.04	4.92297
10.05	4.92133
10.06	4.91573
10.07	4.92067
10.08	4.92297
10.09	4.91869
10.1	4.92067
10.11	4.91211
10.12	4.91475
10.13	4.91146
10.14	4.91442
10.15	4.91573
10.16	4.91211
10.17	4.90356
10.18	4.90225
10.19	4.9085
10.2	4.90784
10.21	4.9085
10.22	4.8983
10.23	4.90093
10.24	4.90356
10.25	4.90159
10.26	4.89764
10.27	4.89764
10.28	4.89764
10.29	4.89994
10.3	4.90981
10.31	4.9006
10.32	4.89303
10.33	4.88876
10.34	4.89797
10.35	4.896
10.36	4.9006
10.37	4.88942
10.38	4.89238
10.39	4.89073
10.4	4.88185
10.41	4.89172
10.42	4.88744
10.43	4.89468
10.44	4.88382
10.45	4.88317
10.46	4.88218
10.47	4.8756
10.48	4.88514
10.49	4.87955
10.5	4.87396
10.51	4.896
10.52	4.86935
10.53	4.8733
10.54	4.87988
10.55	4.87165
10.56	4.87494
10.57	4.86738
10.58	4.87264
10.59	4.87067
10.6	4.86474
10.61	4.86507
10.62	4.86902
10.63	4.86968
10.64	4.87001
10.65	4.85586
10.66	4.86803
10.67	4.87034
10.68	4.86113
10.69	4.85685
10.7	4.86343
10.71	4.85849
10.72	4.85586
10.73	4.86573
10.74	4.85915
10.75	4.84764
10.76	4.85685
10.77	4.86738
10.78	4.85981
10.79	4.86211
10.8	4.86968
10.81	4.84303
10.82	4.84501
10.83	4.85159
10.84	4.85652
10.85	4.85422
10.86	4.84895
10.87	4.85422
10.88	4.86343
10.89	4.85882
10.9	4.84961
10.91	4.85356
10.92	4.84567
10.93	4.84731
10.94	4.84863
10.95	4.84567
10.96	4.85981
10.97	4.85751
10.98	4.84863
10.99	4.85882
11	4.85159
11.01	4.84238
11.02	4.8427
11.03	4.85849
11.04	4.8552
11.05	4.84139
11.06	4.84534
11.07	4.83777
11.08	4.83218
11.09	4.84632
11.1	4.83974
11.11	4.83645
11.12	4.8427
11.13	4.83974
11.14	4.83514
11.15	4.83448
11.16	4.83448
11.17	4.8404
11.18	4.83415
11.19	4.83777
11.2	4.84599
11.21	4.84501
11.22	4.82757
11.23	4.82362
11.24	4.82691
11.25	4.82264
11.26	4.82856
11.27	4.83876
11.28	4.82428
11.29	4.83218
11.3	4.82297
11.31	4.81902
11.32	4.81474
11.33	4.82823
11.34	4.82264
11.35	4.82066
11.36	4.82066
11.37	4.81803
11.38	4.82231
11.39	4.81737
11.4	4.82461
11.41	4.81376
11.42	4.8233
11.43	4.81737
11.44	4.82231
11.45	4.81244
11.46	4.81672
11.47	4.81211
11.48	4.8233
11.49	4.82001
11.5	4.81705
11.51	4.80981
11.52	4.80553
11.53	4.80783
11.54	4.82001
11.55	4.81705
11.56	4.81244
11.57	4.80915
11.58	4.80224
11.59	4.80718
11.6	4.81705
11.61	4.81409
11.62	4.81244
11.63	4.80389
11.64	4.80553
11.65	4.81014
11.66	4.80718
11.67	4.8006
11.68	4.79665
11.69	4.79994
11.7	4.80849
11.71	4.81112
11.72	4.80586
11.73	4.79632
11.74	4.80553
11.75	4.81145
11.76	4.80981
11.77	4.80455
11.78	4.80455
11.79	4.81178
11.8	4.79698
11.81	4.79468
11.82	4.79566
11.83	4.80093
11.84	4.80849
11.85	4.80027
11.86	4.79435
11.87	4.81639
11.88	4.8006
11.89	4.79665
11.9	4.7881
11.91	4.79731
11.92	4.78876
11.93	4.79698
11.94	4.80158
11.95	4.79797
11.96	4.80191
11.97	4.80389
11.98	4.79599
11.99	4.80027
12	4.79566
12.01	4.80685
12.02	4.79928
12.03	4.80356
12.04	4.7983
12.05	4.80257
12.06	4.79106
12.07	4.79073
12.08	4.8006
12.09	4.7904
12.1	4.79303
12.11	4.78645
12.12	4.78612
12.13	4.79073
12.14	4.78053
12.15	4.77691
12.16	4.80093
12.17	4.78514
12.18	4.78843
12.19	4.78941
12.2	4.77954
12.21	4.77494
12.22	4.77658
12.23	4.78645
12.24	4.78185
12.25	4.79007
12.26	4.78941
12.27	4.7802
12.28	4.79204
12.29	4.78185
12.3	4.79468
12.31	4.7927
12.32	4.78349
12.33	4.78283
12.34	4.77
12.35	4.78777
12.36	4.77823
12.37	4.77757
12.38	4.76507
12.39	4.76573
12.4	4.76902
12.41	4.77198
12.42	4.77198
12.43	4.78415
12.44	4.76935
12.45	4.77033
12.46	4.7631
12.47	4.7756
12.48	4.77428
12.49	4.77099
12.5	4.78119
12.51	4.76178
12.52	4.75882
12.53	4.76145
12.54	4.76277
12.55	4.76375
12.56	4.75718
12.57	4.76277
12.58	4.76507
12.59	4.76145
12.6	4.7677
12.61	4.75356
12.62	4.75783
12.63	4.76935
12.64	4.74895
12.65	4.76178
12.66	4.75487
12.67	4.76211
12.68	4.75948
12.69	4.75915
12.7	4.75849
12.71	4.76408
12.72	4.75323
12.73	4.7654
12.74	4.75882
12.75	4.7631
12.76	4.76474
12.77	4.75783
12.78	4.75619
12.79	4.75915
12.8	4.75882
12.81	4.75389
12.82	4.745
12.83	4.75421
12.84	4.75454
12.85	4.76474
12.86	4.75257
12.87	4.75224
12.88	4.75586
12.89	4.76343
12.9	4.76178
12.91	4.74994
12.92	4.76112
12.93	4.77165
12.94	4.75685
12.95	4.7654
12.96	4.75421
12.97	4.75718
12.98	4.75421
12.99	4.74928
13	4.74928
13.01	4.75718
13.02	4.75882
13.03	4.75356
13.04	4.74928
13.05	4.75454
13.06	4.75125
13.07	4.74928
13.08	4.74796
13.09	4.74533
13.1	4.75816
13.11	4.75323
13.12	4.7404
13.13	4.74764
13.14	4.75553
13.15	4.7575
13.16	4.74435
13.17	4.75685
13.18	4.75191
13.19	4.75421
13.2	4.75652
13.21	4.74402
13.22	4.74139
13.23	4.74665
13.24	4.74796
13.25	4.75389
13.26	4.75158
13.27	4.74237
13.28	4.74829
13.29	4.75125
13.3	4.73908
13.31	4.74237
13.32	4.74796
13.33	4.73974
13.34	4.73908
13.35	4.73612
13.36	4.73744
13.37	4.73514
13.38	4.73908
13.39	4.73382
13.4	4.74731
13.41	4.74073
13.42	4.73908
13.43	4.74435
13.44	4.74139
13.45	4.74073
13.46	4.73908
13.47	4.72921
13.48	4.73678
13.49	4.73941
13.5	4.74204
13.51	4.73185
13.52	4.72921
13.53	4.72198
13.54	4.73119
13.55	4.72889
13.56	4.73579
13.57	4.72428
13.58	4.7325
13.59	4.73185
13.6	4.72033
13.61	4.72856
13.62	4.7302
13.63	4.73086
13.64	4.72066
13.65	4.72461
13.66	4.7279
13.67	4.72231
13.68	4.72625
13.69	4.72658
13.7	4.71704
13.71	4.72527
13.72	4.72428
13.73	4.72724
13.74	4.72033
13.75	4.7256
13.76	4.71869
13.77	4.72592
13.78	4.72592
13.79	4.72132
13.8	4.71013
13.81	4.7052
13.82	4.71671
13.83	4.72066
13.84	4.71342
13.85	4.71737
13.86	4.72329
13.87	4.71737
13.88	4.71967
13.89	4.72
13.9	4.71573
13.91	4.72066
13.92	4.72757
13.93	4.73382
13.94	4.72889
13.95	4.71046
13.96	4.71935
13.97	4.7177
13.98	4.72461
13.99	4.72954
14	4.73349
14.01	4.73711
14.02	4.73086
14.03	4.72198
14.04	4.71408
14.05	4.72461
14.06	4.72329
14.07	4.7154
14.08	4.72033
14.09	4.71408
14.1	4.71803
14.11	4.72625
14.12	4.72165
14.13	4.71803
14.14	4.71803
14.15	4.71507
14.16	4.71441
14.17	4.71737
14.18	4.71638
14.19	4.7154
14.2	4.71704
14.21	4.70783
14.22	4.71145
14.23	4.70783
14.24	4.70421
14.25	4.70454
14.26	4.71211
14.27	4.70323
14.28	4.71573
14.29	4.71606
14.3	4.71342
14.31	4.71145
14.32	4.71869
14.33	4.72066
14.34	4.71836
14.35	4.71375
14.36	4.71737
14.37	4.70882
14.38	4.71013
14.39	4.71375
14.4	4.70092
14.41	4.7131
14.42	4.71671
14.43	4.71803
14.44	4.71375
14.45	4.7154
14.46	4.71441
14.47	4.71671
14.48	4.70652
14.49	4.71046
14.5	4.70356
14.51	4.69994
14.52	4.70224
14.53	4.70849
14.54	4.7029
14.55	4.70717
14.56	4.70059
14.57	4.7029
14.58	4.7052
14.59	4.70915
14.6	4.7075
14.61	4.70684
14.62	4.70388
14.63	4.70257
14.64	4.70849
14.65	4.70981
14.66	4.71573
14.67	4.70882
14.68	4.70487
14.69	4.69895
14.7	4.69566
14.71	4.70915
14.72	4.7131
14.73	4.70388
14.74	4.7075
14.75	4.69763
14.76	4.70684
14.77	4.70684
14.78	4.70652
14.79	4.70915
14.8	4.70059
14.81	4.69533
14.82	4.70027
14.83	4.70652
14.84	4.70388
14.85	4.69467
14.86	4.70356
14.87	4.71277
14.88	4.7052
14.89	4.7029
14.9	4.70092
14.91	4.70158
14.92	4.70323
14.93	4.71046
14.94	4.70027
14.95	4.69763
14.96	4.6904
14.97	4.7052
14.98	4.70191
14.99	4.69665
15	4.69829
15.01	4.69796
15.02	4.69138
15.03	4.69369
15.04	4.69566
15.05	4.7052
15.06	4.70092
15.07	4.69731
15.08	4.70421
15.09	4.69237
15.1	4.69731
15.11	4.6927
15.12	4.70421
15.13	4.68875
15.14	4.69763
15.15	4.69467
15.16	4.70257
15.17	4.69138
15.18	4.69369
15.19	4.70849
15.2	4.69829
15.21	4.68513
15.22	4.6848
15.23	4.69862
15.24	4.68283
15.25	4.68382
15.26	4.68744
15.27	4.67428
15.28	4.69105
15.29	4.69829
15.3	4.68809
15.31	4.68809
15.32	4.69961
15.33	4.69171
15.34	4.6927
15.35	4.6927
15.36	4.69599
15.37	4.69994
15.38	4.70816
15.39	4.69665
15.4	4.69632
15.41	4.68678
15.42	4.68678
15.43	4.6825
15.44	4.67592
15.45	4.68053
15.46	4.69467
15.47	4.68941
15.48	4.68777
15.49	4.68382
15.5	4.68283
15.51	4.68448
15.52	4.68382
15.53	4.68415
15.54	4.68513
15.55	4.68612
15.56	4.69533
15.57	4.70586
15.58	4.69171
15.59	4.6904
15.6	4.68086
15.61	4.68678
15.62	4.68777
15.63	4.68217
15.64	4.69237
15.65	4.68546
15.66	4.67198
15.67	4.68184
15.68	4.68382
15.69	4.68678
15.7	4.68119
15.71	4.67888
15.72	4.67329
15.73	4.68612
15.74	4.6779
15.75	4.67296
15.76	4.67823
15.77	4.6779
15.78	4.67823
15.79	4.67855
15.8	4.68908
15.81	4.68809
15.82	4.67987
15.83	4.69237
15.84	4.69336
15.85	4.6904
15.86	4.67033
15.87	4.67658
15.88	4.6825
15.89	4.6904
15.9	4.67724
15.91	4.67757
15.92	4.68777
15.93	4.67921
15.94	4.67296
15.95	4.67329
15.96	4.67888
15.97	4.6904
15.98	4.67757
15.99	4.69632
16	4.67921
16.01	4.69171
16.02	4.68316
16.03	4.67461
16.04	4.67921
16.05	4.67362
16.06	4.6825
16.07	4.6904
16.08	4.68448
16.09	4.68152
16.1	4.68645
16.11	4.68349
16.12	4.67823
16.13	4.68053
16.14	4.68053
16.15	4.67263
16.16	4.67263
16.17	4.67296
16.18	4.66573
16.19	4.67559
16.2	4.68119
16.21	4.67362
16.22	4.67
16.23	4.6654
16.24	4.66342
16.25	4.68349
16.26	4.67921
16.27	4.66441
16.28	4.67198
16.29	4.67954
16.3	4.67691
16.31	4.68119
16.32	4.6779
16.33	4.66276
16.34	4.66145
16.35	4.67329
16.36	4.67066
16.37	4.66803
16.38	4.66342
16.39	4.66901
16.4	4.66046
16.41	4.67362
16.42	4.67066
16.43	4.66803
16.44	4.66013
16.45	4.67066
16.46	4.67559
16.47	4.66375
16.48	4.67461
16.49	4.66671
16.5	4.66507
16.51	4.6779
16.52	4.67099
16.53	4.66737
16.54	4.66704
16.55	4.67033
16.56	4.66441
16.57	4.66211
16.58	4.66507
16.59	4.66869
16.6	4.66869
16.61	4.66803
16.62	4.67198
16.63	4.67033
16.64	4.66375
16.65	4.67165
16.66	4.66573
16.67	4.6575
16.68	4.66079
16.69	4.67
16.7	4.66342
16.71	4.66244
16.72	4.65816
16.73	4.66046
16.74	4.66671
16.75	4.67
16.76	4.66737
16.77	4.66836
16.78	4.67033
16.79	4.66079
16.8	4.65059
16.81	4.66408
16.82	4.6677
16.83	4.66474
16.84	4.6654
16.85	4.66342
16.86	4.67362
16.87	4.67559
16.88	4.67066
16.89	4.65487
16.9	4.65783
16.91	4.67823
16.92	4.67165
16.93	4.66211
16.94	4.66441
16.95	4.66342
16.96	4.67296
16.97	4.66178
16.98	4.65487
16.99	4.66309
17	4.66244
17.01	4.67
17.02	4.67066
17.03	4.66375
17.04	4.67494
17.05	4.66309
17.06	4.65816
17.07	4.65882
17.08	4.66605
17.09	4.6598
17.1	4.65388
17.11	4.65915
17.12	4.65849
17.13	4.66605
17.14	4.66112
17.15	4.67066
17.16	4.67066
17.17	4.6552
17.18	4.65717
17.19	4.65948
17.2	4.65948
17.21	4.66276
17.22	4.66803
17.23	4.66507
17.24	4.65158
17.25	4.65355
17.26	4.66441
17.27	4.65421
17.28	4.64796
17.29	4.64204
17.3	4.67033
17.31	4.66671
17.32	4.6598
17.33	4.66704
17.34	4.65322
17.35	4.65224
17.36	4.65322
17.37	4.65257
17.38	4.65421
17.39	4.6529
17.4	4.65421
17.41	4.65257
17.42	4.65224
17.43	4.65224
17.44	4.64895
17.45	4.66441
17.46	4.65553
17.47	4.65224
17.48	4.64763
17.49	4.64895
17.5	4.64599
17.51	4.65717
17.52	4.66145
17.53	4.65355
17.54	4.64928
17.55	4.65125
17.56	4.65454
17.57	4.64829
17.58	4.65783
17.59	4.65717
17.6	4.64862
17.61	4.65158
17.62	4.64961
17.63	4.64862
17.64	4.64237
17.65	4.64665
17.66	4.65092
17.67	4.64171
17.68	4.66507
17.69	4.65059
17.7	4.64829
17.71	4.6473
17.72	4.6473
17.73	4.64895
17.74	4.64763
17.75	4.6552
17.76	4.65454
17.77	4.6473
17.78	4.64599
17.79	4.65421
17.8	4.64796
17.81	4.64467
17.82	4.65421
17.83	4.65948
17.84	4.65619
17.85	4.64763
17.86	4.64434
17.87	4.65059
17.88	4.64138
17.89	4.6473
17.9	4.64895
17.91	4.64237
17.92	4.65059
17.93	4.63941
17.94	4.645
17.95	4.6473
17.96	4.64237
17.97	4.6473
17.98	4.65158
17.99	4.64533
18	4.64171
18.01	4.64829
18.02	4.64961
18.03	4.64928
18.04	4.6529
18.05	4.63678
18.06	4.64665
18.07	4.64401
18.08	4.64369
18.09	4.64895
18.1	4.63809
18.11	4.64763
18.12	4.64401
18.13	4.64566
18.14	4.63776
18.15	4.63809
18.16	4.65948
18.17	4.65553
18.18	4.65322
18.19	4.65454
18.2	4.65487
18.21	4.64862
18.22	4.63809
18.23	4.64928
18.24	4.64138
18.25	4.6404
18.26	4.64533
18.27	4.65059
18.28	4.64895
18.29	4.645
18.3	4.64072
18.31	4.64895
18.32	4.64928
18.33	4.63546
18.34	4.65125
18.35	4.64928
18.36	4.64763
18.37	4.64796
18.38	4.64895
18.39	4.64369
18.4	4.63743
18.41	4.64697
18.42	4.63743
18.43	4.63743
18.44	4.64336
18.45	4.64928
18.46	4.64697
18.47	4.63875
18.48	4.64072
18.49	4.64401
18.5	4.63908
18.51	4.63743
18.52	4.64467
18.53	4.64105
18.54	4.6348
18.55	4.64007
18.56	4.64171
18.57	4.64665
18.58	4.64928
18.59	4.64105
18.6	4.63645
18.61	4.63447
18.62	4.64138
18.63	4.65059
18.64	4.64105
18.65	4.63875
18.66	4.64204
18.67	4.64007
18.68	4.63908
18.69	4.63579
18.7	4.63382
18.71	4.63546
18.72	4.63678
18.73	4.63941
18.74	4.64237
18.75	4.63842
18.76	4.63447
18.77	4.63349
18.78	4.63579
18.79	4.64961
18.8	4.63809
18.81	4.62296
18.82	4.64533
18.83	4.64204
18.84	4.63217
18.85	4.63645
18.86	4.63776
18.87	4.63513
18.88	4.62954
18.89	4.63184
18.9	4.62625
18.91	4.63086
18.92	4.63743
18.93	4.63513
18.94	4.63184
18.95	4.62099
18.96	4.63743
18.97	4.63217
18.98	4.63086
18.99	4.63283
19	4.62921
19.01	4.63678
19.02	4.63513
19.03	4.62362
19.04	4.63842
19.05	4.63612
19.06	4.63513
19.07	4.63217
19.08	4.65322
19.09	4.64105
19.1	4.64072
19.11	4.63875
19.12	4.62921
19.13	4.62888
19.14	4.63447
19.15	4.63217
19.16	4.64632
19.17	4.63809
19.18	4.64138
19.19	4.63513
19.2	4.62954
19.21	4.63776
19.22	4.64665
19.23	4.63283
19.24	4.61934
19.25	4.63612
19.26	4.63316
19.27	4.63645
19.28	4.63086
19.29	4.64171
19.3	4.6302
19.31	4.62066
19.32	4.62888
19.33	4.63743
19.34	4.63875
19.35	4.64336
19.36	4.62395
19.37	4.62592
19.38	4.62592
19.39	4.63217
19.4	4.63579
19.41	4.62461
19.42	4.62888
19.43	4.62691
19.44	4.62691
19.45	4.63349
19.46	4.63184
19.47	4.62428
19.48	4.61572
19.49	4.62855
19.5	4.62362
19.51	4.62888
19.52	4.6404
19.53	4.62987
19.54	4.62724
19.55	4.63151
19.56	4.62757
19.57	4.61441
19.58	4.62197
19.59	4.63546
19.6	4.62855
19.61	4.6177
19.62	4.62987
19.63	4.63184
19.64	4.62526
19.65	4.62855
19.66	4.63086
19.67	4.63546
19.68	4.62362
19.69	4.62164
19.7	4.63908
19.71	4.6348
19.72	4.63086
19.73	4.63974
19.74	4.62658
19.75	4.62461
19.76	4.63513
19.77	4.64434
19.78	4.63546
19.79	4.63809
19.8	4.6302
19.81	4.63415
19.82	4.6427
19.83	4.63415
19.84	4.62526
19.85	4.6302
19.86	4.63316
19.87	4.62066
19.88	4.62559
19.89	4.64105
19.9	4.63151
19.91	4.61704
19.92	4.63184
19.93	4.62329
19.94	4.62461
19.95	4.62855
19.96	4.61474
19.97	4.62033
19.98	4.62987
19.99	4.62033
20	4.62921
20.01	4.63184
20.02	4.62822
20.03	4.6279
20.04	4.6279
20.05	4.62197
20.06	4.62296
20.07	4.62757
20.08	4.62987
20.09	4.62493
20.1	4.62362
20.11	4.62428
20.12	4.61243
20.13	4.62428
20.14	4.63415
20.15	4.62921
20.16	4.61638
20.17	4.61901
20.18	4.61868
20.19	4.62197
20.2	4.61803
20.21	4.62493
20.22	4.62132
20.23	4.61605
20.24	4.61836
20.25	4.61803
20.26	4.61046
20.27	4.61967
20.28	4.62559
20.29	4.61605
20.3	4.61605
20.31	4.61342
20.32	4.62296
20.33	4.63743
20.34	4.63447
20.35	4.6177
20.36	4.62296
20.37	4.61605
20.38	4.62263
20.39	4.62329
20.4	4.62164
20.41	4.62
20.42	4.62329
20.43	4.61671
20.44	4.63217
20.45	4.62428
20.46	4.62625
20.47	4.62296
20.48	4.62066
20.49	4.62395
20.5	4.60684
20.51	4.62
20.52	4.61375
20.53	4.63118
20.54	4.62526
20.55	4.61868
20.56	4.62395
20.57	4.61901
20.58	4.63809
20.59	4.62757
20.6	4.62493
20.61	4.62493
20.62	4.61112
20.63	4.61671
20.64	4.61967
20.65	4.61671
20.66	4.61539
20.67	4.61704
20.68	4.61967
20.69	4.62625
20.7	4.62559
20.71	4.62395
20.72	4.61836
20.73	4.61737
20.74	4.61474
20.75	4.62066
20.76	4.61803
20.77	4.61704
20.78	4.61507
20.79	4.62395
20.8	4.62625
20.81	4.61145
20.82	4.61276
20.83	4.61408
20.84	4.62822
20.85	4.62658
20.86	4.60882
20.87	4.60914
20.88	4.61934
20.89	4.61836
20.9	4.61868
20.91	4.60783
20.92	4.61046
20.93	4.60914
20.94	4.61605
20.95	4.61309
20.96	4.6177
20.97	4.61079
20.98	4.61967
20.99	4.61178
21	4.61408
21.01	4.61671
21.02	4.61441
21.03	4.6223
21.04	4.61507
21.05	4.61605
21.06	4.61211
21.07	4.61112
21.08	4.6177
21.09	4.62099
21.1	4.62395
21.11	4.61671
21.12	4.61539
21.13	4.60947
21.14	4.60289
21.15	4.60618
21.16	4.61408
21.17	4.60882
21.18	4.60914
21.19	4.61276
21.2	4.61441
21.21	4.62
21.22	4.61605
21.23	4.61342
21.24	4.60816
21.25	4.61408
21.26	4.62296
21.27	4.61836
21.28	4.61507
21.29	4.61309
21.3	4.61507
21.31	4.62099
21.32	4.61408
21.33	4.61638
21.34	4.61145
21.35	4.60322
21.36	4.61441
21.37	4.61178
21.38	4.61934
21.39	4.61704
21.4	4.61046
21.41	4.61243
21.42	4.62822
21.43	4.62329
21.44	4.62099
21.45	4.61145
21.46	4.61572
21.47	4.61211
21.48	4.61276
21.49	4.61211
21.5	4.61605
21.51	4.60618
21.52	4.62132
21.53	4.61145
21.54	4.60684
21.55	4.61309
21.56	4.62
21.57	4.61967
21.58	4.61605
21.59	4.61605
21.6	4.61737
21.61	4.61934
21.62	4.61145
21.63	4.61605
21.64	4.60322
21.65	4.6052
21.66	4.60717
21.67	4.61375
21.68	4.61868
21.69	4.61803
21.7	4.6223
21.71	4.61868
21.72	4.60783
21.73	4.61474
21.74	4.61539
21.75	4.61803
21.76	4.61211
21.77	4.61836
21.78	4.6075
21.79	4.60388
21.8	4.61375
21.81	4.61638
21.82	4.6177
21.83	4.60914
21.84	4.60355
21.85	4.60717
21.86	4.60618
21.87	4.60487
21.88	4.61079
21.89	4.60059
21.9	4.60092
21.91	4.61638
21.92	4.61474
21.93	4.61276
21.94	4.61211
21.95	4.61013
21.96	4.61243
21.97	4.60224
21.98	4.60125
21.99	4.60125
22	4.61046
22.01	4.60783
22.02	4.60289
22.03	4.60421
22.04	4.61145
22.05	4.60191
22.06	4.5996
22.07	4.60717
22.08	4.61046
22.09	4.60684
22.1	4.60553
22.11	4.60651
22.12	4.59599
22.13	4.59072
22.14	4.60684
22.15	4.60882
22.16	4.6052
22.17	4.59763
22.18	4.595
22.19	4.61178
22.2	4.61474
22.21	4.62658
22.22	4.60882
22.23	4.61539
22.24	4.60289
22.25	4.59862
22.26	4.60257
22.27	4.61671
22.28	4.60618
22.29	4.60125
22.3	4.61046
22.31	4.60651
22.32	4.6052
22.33	4.60092
22.34	4.60849
22.35	4.60914
22.36	4.60684
22.37	4.61572
22.38	4.61013
22.39	4.62329
22.4	4.60585
22.41	4.60322
22.42	4.60224
22.43	4.60388
22.44	4.60914
22.45	4.60849
22.46	4.60224
22.47	4.60421
22.48	4.60717
22.49	4.60059
22.5	4.60059
22.51	4.60487
22.52	4.60947
22.53	4.60553
22.54	4.60947
22.55	4.60783
22.56	4.59763
22.57	4.59434
22.58	4.60257
22.59	4.59533
22.6	4.60487
22.61	4.60355
22.62	4.59632
22.63	4.59895
22.64	4.60849
22.65	4.60454
22.66	4.59895
22.67	4.60355
22.68	4.60783
22.69	4.60421
22.7	4.61145
22.71	4.595
22.72	4.60191
22.73	4.60454
22.74	4.60158
22.75	4.61474
22.76	4.60355
22.77	4.60454
22.78	4.5927
22.79	4.59303
22.8	4.60355
22.81	4.59796
22.82	4.59796
22.83	4.60322
22.84	4.60026
22.85	4.5973
22.86	4.60355
22.87	4.59434
22.88	4.60553
22.89	4.60224
22.9	4.60289
22.91	4.60454
22.92	4.60717
22.93	4.6052
22.94	4.60158
22.95	4.59007
22.96	4.60289
22.97	4.60454
22.98	4.59664
22.99	4.59697
23	4.6098
23.01	4.6075
23.02	4.60717
23.03	4.60947
23.04	4.60816
23.05	4.60257
23.06	4.59467
23.07	4.59401
23.08	4.60651
23.09	4.60849
23.1	4.60289
23.11	4.59993
23.12	4.60257
23.13	4.60487
23.14	4.59632
23.15	4.60322
23.16	4.59335
23.17	4.57888
23.18	4.59632
23.19	4.59829
23.2	4.5996
23.21	4.60092
23.22	4.59829
23.23	4.58842
23.24	4.59237
23.25	4.59763
23.26	4.59763
23.27	4.5996
23.28	4.59368
23.29	4.60026
23.3	4.59664
23.31	4.59434
23.32	4.6075
23.33	4.60454
23.34	4.58645
23.35	4.58546
23.36	4.60059
23.37	4.61276
23.38	4.58776
23.39	4.59862
23.4	4.59862
23.41	4.60092
23.42	4.60651
23.43	4.60783
23.44	4.59237
23.45	4.58974
23.46	4.59072
23.47	4.60553
23.48	4.60125
23.49	4.60125
23.5	4.60059
23.51	4.59303
23.52	4.59072
23.53	4.6075
23.54	4.59664
23.55	4.6075
23.56	4.59599
23.57	4.58381
23.58	4.60849
23.59	4.59763
23.6	4.59072
23.61	4.60487
23.62	4.59697
23.63	4.59599
23.64	4.59434
23.65	4.58842
23.66	4.59533
23.67	4.60585
23.68	4.60026
23.69	4.59039
23.7	4.59928
23.71	4.5996
23.72	4.5996
23.73	4.59862
23.74	4.58908
23.75	4.5871
23.76	4.59763
23.77	4.6052
23.78	4.60388
23.79	4.59796
23.8	4.58941
23.81	4.59895
23.82	4.59105
23.83	4.59007
23.84	4.59862
23.85	4.58743
23.86	4.59072
23.87	4.5848
23.88	4.60257
23.89	4.5973
23.9	4.59599
23.91	4.59599
23.92	4.58414
23.93	4.5848
23.94	4.59303
23.95	4.59401
23.96	4.59171
23.97	4.5973
23.98	4.59599
23.99	4.59796
24	4.59335
24.01	4.59204
24.02	4.58974
24.03	4.59039
24.04	4.59368
24.05	4.58151
24.06	4.59928
24.07	4.59138
24.08	4.59533
24.09	4.6075
24.1	4.59039
24.11	4.59632
24.12	4.59796
24.13	4.60026
24.14	4.5973
24.15	4.59533
24.16	4.59105
24.17	4.59434
24.18	4.58974
24.19	4.59533
24.2	4.5871
24.21	4.59829
24.22	4.60355
24.23	4.59467
24.24	4.59664
24.25	4.59829
24.26	4.59368
24.27	4.59335
24.28	4.59763
24.29	4.59599
24.3	4.59467
24.31	4.58414
24.32	4.57822
24.33	4.58513
24.34	4.59434
24.35	4.59993
24.36	4.59533
24.37	4.59434
24.38	4.59039
24.39	4.58809
24.4	4.5927
24.41	4.59763
24.42	4.59928
24.43	4.59138
24.44	4.58941
24.45	4.59204
24.46	4.59796
24.47	4.59401
24.48	4.59105
24.49	4.58053
24.5	4.58776
24.51	4.59368
24.52	4.58053
24.53	4.58776
24.54	4.60224
24.55	4.59993
24.56	4.59335
24.57	4.59039
24.58	4.59072
24.59	4.59237
24.6	4.59401
24.61	4.59171
24.62	4.59895
24.63	4.61145
24.64	4.59171
24.65	4.58678
24.66	4.59039
24.67	4.60224
24.68	4.59335
24.69	4.58118
24.7	4.595
24.71	4.58612
24.72	4.58908
24.73	4.59533
24.74	4.58743
24.75	4.59303
24.76	4.59697
24.77	4.59072
24.78	4.59533
24.79	4.58908
24.8	4.58118
24.81	4.59171
24.82	4.59467
24.83	4.57888
24.84	4.58349
24.85	4.58184
24.86	4.58678
24.87	4.595
24.88	4.5927
24.89	4.58743
24.9	4.58381
24.91	4.58612
24.92	4.57888
24.93	4.56934
24.94	4.57921
24.95	4.58151
24.96	4.58349
24.97	4.5927
24.98	4.59237
24.99	4.59928
25	4.59664
25.01	4.59237
25.02	4.59138
25.03	4.59237
25.04	4.59335
25.05	4.59632
25.06	4.59599
25.07	4.59434
25.08	4.58809
25.09	4.57789
25.1	4.5871
25.11	4.58809
25.12	4.58184
25.13	4.5848
25.14	4.57855
25.15	4.58184
25.16	4.57691
25.17	4.57855
25.18	4.58217
25.19	4.58546
25.2	4.58414
25.21	4.58184
25.22	4.58283
25.23	4.58678
25.24	4.57724
25.25	4.59072
25.26	4.59303
25.27	4.59007
25.28	4.59171
25.29	4.5825
25.3	4.58809
25.31	4.59039
25.32	4.58184
25.33	4.57921
25.34	4.59105
25.35	4.58743
25.36	4.58118
25.37	4.59401
25.38	4.58875
25.39	4.57987
25.4	4.58349
25.41	4.58447
25.42	4.58579
25.43	4.59566
25.44	4.5927
25.45	4.58414
25.46	4.57724
25.47	4.58118
25.48	4.59664
25.49	4.58447
25.5	4.58085
25.51	4.57954
25.52	4.58414
25.53	4.5848
25.54	4.59105
25.55	4.5871
25.56	4.58316
25.57	4.59072
25.58	4.58513
25.59	4.59697
25.6	4.59467
25.61	4.59763
25.62	4.59171
25.63	4.59072
25.64	4.58612
25.65	4.58612
25.66	4.58875
25.67	4.57855
25.68	4.59467
25.69	4.58053
25.7	4.57329
25.71	4.57789
25.72	4.57066
25.73	4.57724
25.74	4.58184
25.75	4.58645
25.76	4.58678
25.77	4.58908
25.78	4.58645
25.79	4.57329
25.8	4.58316
25.81	4.58875
25.82	4.5848
25.83	4.58842
25.84	4.57658
25.85	4.59105
25.86	4.58349
25.87	4.57066
25.88	4.58941
25.89	4.5825
25.9	4.57822
25.91	4.58414
25.92	4.59237
25.93	4.59204
25.94	4.57724
25.95	4.5723
25.96	4.57855
25.97	4.58546
25.98	4.5802
25.99	4.58349
26	4.58085
26.01	4.58612
26.02	4.58776
26.03	4.59007
26.04	4.59039
26.05	4.5825
26.06	4.5848
26.07	4.59335
26.08	4.58447
26.09	4.58053
26.1	4.58053
26.11	4.59401
26.12	4.58776
26.13	4.59335
26.14	4.59007
26.15	4.58546
26.16	4.57691
26.17	4.58612
26.18	4.58809
26.19	4.57954
26.2	4.58513
26.21	4.57428
26.22	4.57987
26.23	4.58941
26.24	4.58349
26.25	4.57987
26.26	4.57658
26.27	4.58645
26.28	4.58349
26.29	4.58513
26.3	4.58414
26.31	4.58414
26.32	4.58875
26.33	4.58579
26.34	4.58414
26.35	4.57296
26.36	4.57526
26.37	4.58678
26.38	4.58513
26.39	4.58908
26.4	4.58349
26.41	4.58316
26.42	4.58414
26.43	4.57987
26.44	4.58743
26.45	4.58842
26.46	4.5825
26.47	4.58974
26.48	4.57625
26.49	4.57691
26.5	4.57789
26.51	4.57428
26.52	4.57131
26.53	4.58414
26.54	4.58842
26.55	4.5746
26.56	4.57822
26.57	4.58283
26.58	4.57493
26.59	4.57263
26.6	4.58414
26.61	4.58085
26.62	4.58217
26.63	4.59138
26.64	4.58447
26.65	4.58217
26.66	4.57954
26.67	4.58316
26.68	4.56868
26.69	4.57592
26.7	4.5746
26.71	4.57329
26.72	4.59204
26.73	4.57592
26.74	4.58316
26.75	4.57987
26.76	4.57691
26.77	4.58217
26.78	4.58217
26.79	4.58974
26.8	4.58842
26.81	4.58645
26.82	4.58118
26.83	4.58316
26.84	4.58809
26.85	4.57329
26.86	4.58118
26.87	4.5871
26.88	4.59072
26.89	4.58217
26.9	4.57954
26.91	4.58316
26.92	4.58414
26.93	4.59632
26.94	4.58184
26.95	4.58381
26.96	4.57987
26.97	4.57888
26.98	4.59566
26.99	4.59039
27	4.59204
27.01	4.59862
27.02	4.58974
27.03	4.5802
27.04	4.58842
27.05	4.57691
27.06	4.58908
27.07	4.59895
27.08	4.59533
27.09	4.58085
27.1	4.57493
27.11	4.58612
27.12	4.57855
27.13	4.57066
27.14	4.58546
27.15	4.59697
27.16	4.59171
27.17	4.57954
27.18	4.58809
27.19	4.58283
27.2	4.57362
27.21	4.57395
27.22	4.57855
27.23	4.59105
27.24	4.58842
27.25	4.59105
27.26	4.57822
27.27	4.57625
27.28	4.57756
27.29	4.58283
27.3	4.57724
27.31	4.5677
27.32	4.57296
27.33	4.56934
27.34	4.55914
27.35	4.57789
27.36	4.56704
27.37	4.57263
27.38	4.57164
27.39	4.57921
27.4	4.56638
27.41	4.56539
27.42	4.57066
27.43	4.57099
27.44	4.56835
27.45	4.56802
27.46	4.56868
27.47	4.5825
27.48	4.57428
27.49	4.57329
27.5	4.56868
27.51	4.57658
27.52	4.58217
27.53	4.57822
27.54	4.56309
27.55	4.57033
27.56	4.5825
27.57	4.57131
27.58	4.57921
27.59	4.58513
27.6	4.57526
27.61	4.57362
27.62	4.57428
27.63	4.5746
27.64	4.57526
27.65	4.56441
27.66	4.57625
27.67	4.58283
27.68	4.57592
27.69	4.57296
27.7	4.58316
27.71	4.57493
27.72	4.57362
27.73	4.56572
27.74	4.56704
27.75	4.56934
27.76	4.56572
27.77	4.57263
27.78	4.56605
27.79	4.56671
27.8	4.57987
27.81	4.5802
27.82	4.57526
27.83	4.56967
27.84	4.56145
27.85	4.57329
27.86	4.57888
27.87	4.58053
27.88	4.58875
27.89	4.57954
27.9	4.57329
27.91	4.57855
27.92	4.57131
27.93	4.57822
27.94	4.56704
27.95	4.57164
27.96	4.57131
27.97	4.57888
27.98	4.5746
27.99	4.56835
28	4.56671
28.01	4.5723
28.02	4.56309
28.03	4.56408
28.04	4.56802
28.05	4.57263
28.06	4.58612
28.07	4.57724
28.08	4.56934
28.09	4.57625
28.1	4.57329
28.11	4.57329
28.12	4.56243
28.13	4.58612
28.14	4.56342
28.15	4.57164
28.16	4.56506
28.17	4.56375
28.18	4.56901
28.19	4.56309
28.2	4.56474
28.21	4.56802
28.22	4.57855
28.23	4.58053
28.24	4.5825
28.25	4.56934
28.26	4.56671
28.27	4.57033
28.28	4.57296
28.29	4.56408
28.3	4.57066
28.31	4.57526
28.32	4.57428
28.33	4.56868
28.34	4.57691
28.35	4.56671
28.36	4.58447
28.37	4.57658
28.38	4.56901
28.39	4.56704
28.4	4.56704
28.41	4.57197
28.42	4.57395
28.43	4.57197
28.44	4.56671
28.45	4.57066
28.46	4.56605
28.47	4.56901
28.48	4.57197
28.49	4.57395
28.5	4.56506
28.51	4.57888
28.52	4.56835
28.53	4.5802
28.54	4.57855
28.55	4.56901
28.56	4.56802
28.57	4.57131
28.58	4.57921
28.59	4.57559
28.6	4.57493
28.61	4.56605
28.62	4.56539
28.63	4.57658
28.64	4.57263
28.65	4.5598
28.66	4.56375
28.67	4.56671
28.68	4.57592
28.69	4.56868
28.7	4.57855
28.71	4.56802
28.72	4.5723
28.73	4.57296
28.74	4.56013
28.75	4.5802
28.76	4.57296
28.77	4.57
28.78	4.57329
28.79	4.57329
28.8	4.57329
28.81	4.55816
28.82	4.55849
28.83	4.57164
28.84	4.56276
28.85	4.56605
28.86	4.56276
28.87	4.56737
28.88	4.57
28.89	4.57099
28.9	4.5746
28.91	4.56079
28.92	4.56802
28.93	4.56802
28.94	4.57329
28.95	4.57099
28.96	4.55618
28.97	4.5598
28.98	4.5621
28.99	4.55717
29	4.56145
29.01	4.56835
29.02	4.56868
29.03	4.55947
29.04	4.56177
29.05	4.55059
29.06	4.55684
29.07	4.56112
29.08	4.5677
29.09	4.57658
29.1	4.56309
29.11	4.57263
29.12	4.56901
29.13	4.56539
29.14	4.56243
29.15	4.55947
29.16	4.56835
29.17	4.57691
29.18	4.56671
29.19	4.55421
29.2	4.56145
29.21	4.57
29.22	4.56342
29.23	4.57263
29.24	4.57658
29.25	4.57855
29.26	4.56276
29.27	4.56408
29.28	4.57164
29.29	4.56638
29.3	4.56276
29.31	4.57296
29.32	4.57428
29.33	4.56276
29.34	4.55223
29.35	4.57066
29.36	4.57131
29.37	4.56112
29.38	4.57559
29.39	4.57263
29.4	4.57131
29.41	4.56967
29.42	4.56704
29.43	4.56013
29.44	4.55158
29.45	4.5552
29.46	4.55947
29.47	4.57329
29.48	4.57099
29.49	4.57099
29.5	4.57263
29.51	4.56342
29.52	4.56046
29.53	4.56309
29.54	4.56967
29.55	4.57
29.56	4.56506
29.57	4.5746
29.58	4.57329
29.59	4.55881
29.6	4.56375
29.61	4.56506
29.62	4.57197
29.63	4.55552
29.64	4.5677
29.65	4.56506
29.66	4.57296
29.67	4.57099
29.68	4.57066
29.69	4.56309
29.7	4.56112
29.71	4.56802
29.72	4.55651
29.73	4.56276
29.74	4.56901
29.75	4.56342
29.76	4.55914
29.77	4.56638
29.78	4.56079
29.79	4.56506
29.8	4.55454
29.81	4.55947
29.82	4.56046
29.83	4.55783
29.84	4.55256
29.85	4.54993
29.86	4.5621
29.87	4.56177
29.88	4.56868
29.89	4.56671
29.9	4.57066
29.91	4.57
29.92	4.56046
29.93	4.55849
29.94	4.56243
29.95	4.56802
29.96	4.56737
29.97	4.5621
29.98	4.56572
29.99	4.56539
30	4.56309
