"BIO-KINE ASCII FILE"
"_COMMENT"	"MOS-500 Spectrometer"
"_COMMENT"	"Kinetics measurement"
"_COMMENT"	"Y Unit : Volt,  X Unit : s"
"_COMMENT"	"Excitation wavelength : 380 nm"
"_COMMENT"	"Fentes bandwidth =  1 nm"
"_COMMENT"	"HV= 1000V"
"_COMMENT"	"Timebase  1 =  .01 s   5001 pts"
"_SFM"	"SFM-400 /S  Advanced mode"
"_SFM"	"Ratio : S1: 2.5, S2: 0, S3: 0, S4: 1"
"_SFM"	"Content : S1: , S2: , S3: , S4:"
"_SFM"	"Concentration : S1: , S2: , S3: , S4:"
"_SFM"	"Total volume : 209 µl  Flow : 3.5 mL/s"
"_SFM"	"Acquisition start :  10 ms before stop"
"_SFM"	"cuve=FC-15, s1=10 ml , s2=10 ml , s3=10 ml , s4=1.9 ml"
"_UNITX"	"s"
"_UNITY"	"Volt"
"_DELTAX"	0
"_DATA"
1e-300	7.82864
0.01	8.03029
0.02	8.20793
0.03	8.41024
0.04	8.4757
0.05	8.52043
0.06	8.59577
0.07	8.56813
0.08	8.59609
0.09	8.59938
0.1	8.62044
0.11	8.62471
0.12	8.59708
0.13	8.56649
0.14	8.63787
0.15	8.64873
0.16	8.63129
0.17	8.58721
0.18	8.60859
0.19	8.6655
0.2	8.61682
0.21	8.61287
0.22	8.63129
0.23	8.59544
0.24	8.63195
0.25	8.58096
0.26	8.56419
0.27	8.60267
0.28	8.65235
0.29	8.60859
0.3	8.58359
0.31	8.54445
0.32	8.61879
0.33	8.56188
0.34	8.58557
0.35	8.61813
0.36	8.62438
0.37	8.54642
0.38	8.62767
0.39	8.55629
0.4	8.5359
0.41	8.54971
0.42	8.57504
0.43	8.58952
0.44	8.49839
0.45	8.52043
0.46	8.60761
0.47	8.54445
0.48	8.52372
0.49	8.55004
0.5	8.54774
0.51	8.55695
0.52	8.55728
0.53	8.56945
0.54	8.59807
0.55	8.54576
0.56	8.50103
0.57	8.48622
0.58	8.50267
0.59	8.54675
0.6	8.453
0.61	8.49247
0.62	8.4576
0.63	8.50465
0.64	8.48491
0.65	8.50201
0.66	8.51418
0.67	8.52109
0.68	8.48886
0.69	8.47438
0.7	8.50136
0.71	8.45596
0.72	8.51912
0.73	8.44149
0.74	8.41912
0.75	8.41747
0.76	8.40958
0.77	8.45826
0.78	8.44971
0.79	8.44774
0.8	8.46385
0.81	8.42438
0.82	8.3951
0.83	8.44642
0.84	8.43458
0.85	8.40596
0.86	8.40004
0.87	8.40892
0.88	8.40727
0.89	8.39905
0.9	8.41517
0.91	8.39214
0.92	8.38885
0.93	8.38918
0.94	8.38688
0.95	8.40366
0.96	8.3553
0.97	8.40004
0.98	8.40267
0.99	8.38359
1	8.3553
1.01	8.4076
1.02	8.34773
1.03	8.34444
1.04	8.33721
1.05	8.38754
1.06	8.35859
1.07	8.29411
1.08	8.29675
1.09	8.34839
1.1	8.31582
1.11	8.33523
1.12	8.27405
1.13	8.30069
1.14	8.29543
1.15	8.27306
1.16	8.3451
1.17	8.32734
1.18	8.31385
1.19	8.30332
1.2	8.28589
1.21	8.31714
1.22	8.28359
1.23	8.2576
1.24	8.24905
1.25	8.24839
1.26	8.26023
1.27	8.2826
1.28	8.30069
1.29	8.26418
1.3	8.29543
1.31	8.24247
1.32	8.2247
1.33	8.15102
1.34	8.22141
1.35	8.22076
1.36	8.26451
1.37	8.2247
1.38	8.22306
1.39	8.2326
1.4	8.21451
1.41	8.18391
1.42	8.23194
1.43	8.20859
1.44	8.17766
1.45	8.19806
1.46	8.16615
1.47	8.18161
1.48	8.2474
1.49	8.22734
1.5	8.19576
1.51	8.20661
1.52	8.19115
1.53	8.17898
1.54	8.15661
1.55	8.2076
1.56	8.24181
1.57	8.21451
1.58	8.15562
1.59	8.15036
1.6	8.15168
1.61	8.1326
1.62	8.16352
1.63	8.18293
1.64	8.11023
1.65	8.15694
1.66	8.20859
1.67	8.12832
1.68	8.11911
1.69	8.0747
1.7	8.11714
1.71	8.10858
1.72	8.20365
1.73	8.14345
1.74	8.18852
1.75	8.13654
1.76	8.1122
1.77	8.08194
1.78	8.10825
1.79	8.12569
1.8	8.13983
1.81	8.06319
1.82	8.06056
1.83	8.08687
1.84	8.06286
1.85	8.0645
1.86	8.10727
1.87	8.03457
1.88	8.04707
1.89	8.06714
1.9	8.06483
1.91	8.08589
1.92	8.04246
1.93	8.07898
1.94	8.0599
1.95	8.04148
1.96	8.07766
1.97	8.06319
1.98	8.05825
1.99	8.02569
2	8.05431
2.01	8.05628
2.02	8.06385
2.03	8.07108
2.04	7.98523
2.05	8.0224
2.06	7.9974
2.07	8.02075
2.08	8.00496
2.09	8.00069
2.1	7.99608
2.11	7.99378
2.12	8.00661
2.13	8.00694
2.14	7.96154
2.15	7.97536
2.16	7.96121
2.17	7.92174
2.18	7.92174
2.19	7.91779
2.2	7.92601
2.21	7.94772
2.22	7.93983
2.23	7.98555
2.24	7.98161
2.25	7.99641
2.26	7.98128
2.27	7.94345
2.28	7.9872
2.29	8.00167
2.3	7.952
2.31	7.96582
2.32	7.94707
2.33	7.94082
2.34	7.95365
2.35	7.92305
2.36	7.91746
2.37	7.92799
2.38	7.95463
2.39	7.91746
2.4	7.90562
2.41	7.9349
2.42	7.94476
2.43	7.90858
2.44	7.87108
2.45	7.90068
2.46	7.90134
2.47	7.90035
2.48	7.90957
2.49	7.88884
2.5	7.91253
2.51	7.91647
2.52	7.87667
2.53	7.85035
2.54	7.89608
2.55	7.90924
2.56	7.86384
2.57	7.89707
2.58	7.86614
2.59	7.82733
2.6	7.81943
2.61	7.85068
2.62	7.81022
2.63	7.83029
2.64	7.87831
2.65	7.85595
2.66	7.83029
2.67	7.79805
2.68	7.83851
2.69	7.80858
2.7	7.89904
2.71	7.88226
2.72	7.83851
2.73	7.77634
2.74	7.7918
2.75	7.81384
2.76	7.85331
2.77	7.84706
2.78	7.7816
2.79	7.7816
2.8	7.81055
2.81	7.82437
2.82	7.82206
2.83	7.80923
2.84	7.76088
2.85	7.75529
2.86	7.80463
2.87	7.81187
2.88	7.75364
2.89	7.77108
2.9	7.76088
2.91	7.78522
2.92	7.76844
2.93	7.74147
2.94	7.75693
2.95	7.75035
2.96	7.72535
2.97	7.75561
2.98	7.74969
2.99	7.70627
3	7.72502
3.01	7.77042
3.02	7.76548
3.03	7.78621
3.04	7.75627
3.05	7.69903
3.06	7.75002
3.07	7.73127
3.08	7.70068
3.09	7.68785
3.1	7.67042
3.11	7.70397
3.12	7.71088
3.13	7.73489
3.14	7.74476
3.15	7.72798
3.16	7.69673
3.17	7.77075
3.18	7.70956
3.19	7.6816
3.2	7.71219
3.21	7.72042
3.22	7.71976
3.23	7.70857
3.24	7.72502
3.25	7.68292
3.26	7.66252
3.27	7.72502
3.28	7.70923
3.29	7.69772
3.3	7.72075
3.31	7.62436
3.32	7.63555
3.33	7.67765
3.34	7.64607
3.35	7.65594
3.36	7.66778
3.37	7.63094
3.38	7.66416
3.39	7.67634
3.4	7.64048
3.41	7.66186
3.42	7.57502
3.43	7.65495
3.44	7.6418
3.45	7.67107
3.46	7.66285
3.47	7.6362
3.48	7.62305
3.49	7.6339
3.5	7.5839
3.51	7.59969
3.52	7.59837
3.53	7.60989
3.54	7.63555
3.55	7.66153
3.56	7.66482
3.57	7.58028
3.58	7.58094
3.59	7.59311
3.6	7.63226
3.61	7.64147
3.62	7.61581
3.63	7.63423
3.64	7.59574
3.65	7.58916
3.66	7.57502
3.67	7.62962
3.68	7.5635
3.69	7.59081
3.7	7.58028
3.71	7.58291
3.72	7.56515
3.73	7.55429
3.74	7.55265
3.75	7.55396
3.76	7.55627
3.77	7.5464
3.78	7.52041
3.79	7.56021
3.8	7.5816
3.81	7.54443
3.82	7.5066
3.83	7.53456
3.84	7.52962
3.85	7.55298
3.86	7.5566
3.87	7.51449
3.88	7.54212
3.89	7.55396
3.9	7.50594
3.91	7.47995
3.92	7.54607
3.93	7.55627
3.94	7.54771
3.95	7.55429
3.96	7.51285
3.97	7.53028
3.98	7.52074
3.99	7.52535
4	7.48587
4.01	7.50199
4.02	7.51021
4.03	7.48587
4.04	7.49377
4.05	7.4783
4.06	7.44541
4.07	7.46844
4.08	7.45298
4.09	7.50956
4.1	7.50067
4.11	7.43291
4.12	7.426
4.13	7.4408
4.14	7.49574
4.15	7.45298
4.16	7.46219
4.17	7.46679
4.18	7.45659
4.19	7.42107
4.2	7.44705
4.21	7.40034
4.22	7.43883
4.23	7.46778
4.24	7.46811
4.25	7.40429
4.26	7.42962
4.27	7.41942
4.28	7.39146
4.29	7.40166
4.3	7.40363
4.31	7.42501
4.32	7.43291
4.33	7.4237
4.34	7.3964
4.35	7.38686
4.36	7.42765
4.37	7.4135
4.38	7.35692
4.39	7.38686
4.4	7.39936
4.41	7.45232
4.42	7.39014
4.43	7.39738
4.44	7.40001
4.45	7.42962
4.46	7.39047
4.47	7.43159
4.48	7.43686
4.49	7.36909
4.5	7.3908
4.51	7.35264
4.52	7.38422
4.53	7.44015
4.54	7.39574
4.55	7.39672
4.56	7.43455
4.57	7.38291
4.58	7.43587
4.59	7.35791
4.6	7.35495
4.61	7.36876
4.62	7.38357
4.63	7.35922
4.64	7.42501
4.65	7.40824
4.66	7.33817
4.67	7.30462
4.68	7.33981
4.69	7.39014
4.7	7.35231
4.71	7.37271
4.72	7.34968
4.73	7.2885
4.74	7.31547
4.75	7.32468
4.76	7.34113
4.77	7.36745
4.78	7.31547
4.79	7.32764
4.8	7.32402
4.81	7.37732
4.82	7.37041
4.83	7.31481
4.84	7.33356
4.85	7.31416
4.86	7.23027
4.87	7.3112
4.88	7.31317
4.89	7.34541
4.9	7.35988
4.91	7.32304
4.92	7.27435
4.93	7.31712
4.94	7.29573
4.95	7.2704
4.96	7.25165
4.97	7.32008
4.98	7.31383
4.99	7.27764
5	7.31054
5.01	7.31843
5.02	7.27764
5.03	7.23784
5.04	7.21514
5.05	7.26975
5.06	7.27501
5.07	7.28948
5.08	7.26646
5.09	7.23718
5.1	7.23817
5.11	7.25165
5.12	7.27106
5.13	7.29179
5.14	7.23422
5.15	7.27238
5.16	7.29804
5.17	7.23619
5.18	7.25001
5.19	7.24672
5.2	7.23554
5.21	7.24672
5.22	7.24442
5.23	7.23619
5.24	7.23521
5.25	7.25725
5.26	7.23718
5.27	7.22271
5.28	7.23159
5.29	7.21843
5.3	7.26843
5.31	7.20264
5.32	7.16448
5.33	7.18882
5.34	7.21481
5.35	7.19902
5.36	7.19277
5.37	7.2329
5.38	7.2431
5.39	7.20757
5.4	7.17468
5.41	7.12895
5.42	7.20757
5.43	7.22304
5.44	7.1783
5.45	7.23225
5.46	7.18553
5.47	7.21481
5.48	7.18422
5.49	7.18685
5.5	7.18488
5.51	7.25067
5.52	7.1829
5.53	7.20198
5.54	7.16448
5.55	7.19738
5.56	7.16678
5.57	7.20527
5.58	7.19409
5.59	7.14343
5.6	7.16843
5.61	7.20856
5.62	7.14277
5.63	7.18027
5.64	7.1783
5.65	7.14573
5.66	7.08981
5.67	7.12139
5.68	7.08816
5.69	7.11415
5.7	7.12994
5.71	7.14672
5.72	7.17073
5.73	7.1431
5.74	7.10165
5.75	7.16974
5.76	7.11382
5.77	7.13751
5.78	7.15659
5.79	7.13718
5.8	7.13257
5.81	7.15231
5.82	7.1658
5.83	7.13488
5.84	7.11086
5.85	7.15428
5.86	7.11382
5.87	7.11974
5.88	7.10297
5.89	7.12895
5.9	7.09803
5.91	7.10428
5.92	7.10066
5.93	7.09441
5.94	7.08553
5.95	7.09376
5.96	7.16415
5.97	7.12764
5.98	7.1158
5.99	7.11711
6	7.12534
6.01	7.12402
6.02	7.10527
6.03	7.07073
6.04	7.10461
6.05	7.07665
6.06	7.09145
6.07	7.10132
6.08	7.04474
6.09	7.03816
6.1	7.08948
6.11	7.07237
6.12	7.08389
6.13	7.06218
6.14	7.09474
6.15	7.12895
6.16	7.05856
6.17	7.07599
6.18	7.07599
6.19	7.04277
6.2	7.08487
6.21	7.05395
6.22	7.04869
6.23	6.98257
6.24	7.07007
6.25	7.02698
6.26	7.03191
6.27	7.00658
6.28	7.10132
6.29	7.07007
6.3	7.05922
6.31	7.03323
6.32	7.02698
6.33	7.0056
6.34	7.04836
6.35	7.01119
6.36	7.01448
6.37	7.03685
6.38	7.04244
6.39	7.05889
6.4	7.02007
6.41	7.00592
6.42	7.0056
6.43	7.00263
6.44	7.0056
6.45	7.05066
6.46	6.98586
6.47	6.9727
6.48	6.95165
6.49	6.98092
6.5	7.0329
6.51	7.05
6.52	7.03915
6.53	7.06053
6.54	6.9977
6.55	6.98092
6.56	7.02435
6.57	7.02204
6.58	6.98684
6.59	6.99375
6.6	7.00263
6.61	7.01448
6.62	7.02599
6.63	6.96744
6.64	6.99441
6.65	7.00856
6.66	6.98388
6.67	6.9977
6.68	7.03816
6.69	7.06974
6.7	7.00987
6.71	6.95954
6.72	6.9579
6.73	6.99013
6.74	6.98454
6.75	6.9625
6.76	6.98717
6.77	6.91119
6.78	6.9704
6.79	7.03027
6.8	6.99441
6.81	7
6.82	6.98125
6.83	7.00494
6.84	6.97632
6.85	7.00691
6.86	6.95823
6.87	6.96777
6.88	6.93553
6.89	6.97763
6.9	6.97237
6.91	6.99671
6.92	6.96316
6.93	6.93158
6.94	6.93553
6.95	6.91842
6.96	6.94836
6.97	6.94178
6.98	7.05033
6.99	6.97599
7	6.95987
7.01	6.92796
7.02	6.95263
7.03	6.96448
7.04	6.96612
7.05	6.88125
7.06	6.9148
7.07	6.92204
7.08	6.95954
7.09	6.94737
7.1	6.9829
7.11	6.95198
7.12	6.95987
7.13	6.96612
7.14	6.95165
7.15	6.9352
7.16	6.90066
7.17	6.9398
7.18	6.8977
7.19	6.94178
7.2	6.93849
7.21	6.97698
7.22	6.93388
7.23	6.91086
7.24	6.93849
7.25	6.93257
7.26	6.91941
7.27	6.93684
7.28	6.93454
7.29	6.87467
7.3	6.89178
7.31	6.90724
7.32	6.91546
7.33	6.94934
7.34	6.91447
7.35	6.96579
7.36	6.95263
7.37	6.97566
7.38	6.88651
7.39	6.90197
7.4	6.91744
7.41	6.89375
7.42	6.91283
7.43	6.91053
7.44	6.90625
7.45	6.85493
7.46	6.78256
7.47	6.88947
7.48	6.85625
7.49	6.84506
7.5	6.91842
7.51	6.88191
7.52	6.86349
7.53	6.87401
7.54	6.88388
7.55	6.90691
7.56	6.86349
7.57	6.88651
7.58	6.86447
7.59	6.86645
7.6	6.8477
7.61	6.8227
7.62	6.90099
7.63	6.89375
7.64	6.85395
7.65	6.88553
7.66	6.87368
7.67	6.87039
7.68	6.86612
7.69	6.88191
7.7	6.8375
7.71	6.8171
7.72	6.80691
7.73	6.83783
7.74	6.81085
7.75	6.83355
7.76	6.83454
7.77	6.84539
7.78	6.88059
7.79	6.83125
7.8	6.83421
7.81	6.79145
7.82	6.79605
7.83	6.78947
7.84	6.81941
7.85	6.81217
7.86	6.87401
7.87	6.82434
7.88	6.80888
7.89	6.83158
7.9	6.86151
7.91	6.81349
7.92	6.79671
7.93	6.83125
7.94	6.84342
7.95	6.84276
7.96	6.8852
7.97	6.84572
7.98	6.85
7.99	6.87763
8	6.84013
8.01	6.80855
8.02	6.86283
8.03	6.86118
8.04	6.84145
8.05	6.86875
8.06	6.81447
8.07	6.80822
8.08	6.78026
8.09	6.84342
8.1	6.88026
8.11	6.80164
8.12	6.82599
8.13	6.80888
8.14	6.80954
8.15	6.78684
8.16	6.81414
8.17	6.79441
8.18	6.83947
8.19	6.80559
8.2	6.79901
8.21	6.74934
8.22	6.80559
8.23	6.77237
8.24	6.79704
8.25	6.76743
8.26	6.74408
8.27	6.78717
8.28	6.77401
8.29	6.81842
8.3	6.78125
8.31	6.77302
8.32	6.75427
8.33	6.79473
8.34	6.80329
8.35	6.76348
8.36	6.77401
8.37	6.79802
8.38	6.7694
8.39	6.80822
8.4	6.78585
8.41	6.76776
8.42	6.8102
8.43	6.75987
8.44	6.74868
8.45	6.76875
8.46	6.7875
8.47	6.74835
8.48	6.74079
8.49	6.75493
8.5	6.7273
8.51	6.77697
8.52	6.75822
8.53	6.75592
8.54	6.79046
8.55	6.77927
8.56	6.70756
8.57	6.7398
8.58	6.76513
8.59	6.775
8.6	6.77368
8.61	6.76447
8.62	6.69243
8.63	6.74868
8.64	6.775
8.65	6.73585
8.66	6.76875
8.67	6.79506
8.68	6.76809
8.69	6.72796
8.7	6.70197
8.71	6.79342
8.72	6.73848
8.73	6.76776
8.74	6.77302
8.75	6.77039
8.76	6.78783
8.77	6.79704
8.78	6.76217
8.79	6.69111
8.8	6.72171
8.81	6.74342
8.82	6.68947
8.83	6.74309
8.84	6.74572
8.85	6.70888
8.86	6.75954
8.87	6.72861
8.88	6.75033
8.89	6.69868
8.9	6.71842
8.91	6.74111
8.92	6.72105
8.93	6.71052
8.94	6.76546
8.95	6.75098
8.96	6.74901
8.97	6.75394
8.98	6.72894
8.99	6.66644
9	6.70098
9.01	6.70921
9.02	6.68519
9.03	6.7375
9.04	6.78388
9.05	6.7671
9.06	6.76052
9.07	6.75394
9.08	6.70953
9.09	6.7171
9.1	6.68453
9.11	6.70953
9.12	6.67796
9.13	6.70986
9.14	6.72631
9.15	6.68782
9.16	6.71546
9.17	6.68585
9.18	6.68914
9.19	6.7069
9.2	6.69802
9.21	6.66249
9.22	6.6944
9.23	6.64309
9.24	6.69111
9.25	6.6921
9.26	6.70855
9.27	6.72236
9.28	6.63914
9.29	6.67565
9.3	6.72269
9.31	6.66249
9.32	6.66776
9.33	6.6898
9.34	6.70131
9.35	6.70723
9.36	6.70526
9.37	6.70625
9.38	6.65822
9.39	6.71644
9.4	6.68749
9.41	6.67598
9.42	6.66973
9.43	6.6648
9.44	6.69769
9.45	6.68486
9.46	6.67434
9.47	6.65657
9.48	6.68914
9.49	6.6273
9.5	6.66447
9.51	6.68421
9.52	6.69342
9.53	6.71644
9.54	6.66677
9.55	6.66677
9.56	6.6898
9.57	6.69375
9.58	6.67138
9.59	6.63947
9.6	6.6569
9.61	6.66414
9.62	6.6694
9.63	6.6523
9.64	6.64638
9.65	6.68947
9.66	6.68092
9.67	6.63322
9.68	6.66447
9.69	6.68026
9.7	6.6148
9.71	6.64506
9.72	6.65723
9.73	6.68355
9.74	6.66644
9.75	6.65723
9.76	6.62598
9.77	6.66151
9.78	6.60723
9.79	6.60164
9.8	6.58815
9.81	6.62203
9.82	6.66348
9.83	6.6319
9.84	6.62039
9.85	6.61414
9.86	6.62269
9.87	6.65789
9.88	6.6342
9.89	6.60986
9.9	6.62697
9.91	6.64966
9.92	6.61743
9.93	6.64638
9.94	6.62532
9.95	6.64374
9.96	6.64999
9.97	6.64572
9.98	6.62368
9.99	6.66282
10	6.61282
10.01	6.56841
10.02	6.65065
10.03	6.58322
10.04	6.60394
10.05	6.63881
10.06	6.57335
10.07	6.58618
10.08	6.55953
10.09	6.63914
10.1	6.64078
10.11	6.59572
10.12	6.59144
10.13	6.62039
10.14	6.61216
10.15	6.68322
10.16	6.66907
10.17	6.64045
10.18	6.62368
10.19	6.63223
10.2	6.56085
10.21	6.57039
10.22	6.57762
10.23	6.60657
10.24	6.59407
10.25	6.56249
10.26	6.61907
10.27	6.58585
10.28	6.57335
10.29	6.61282
10.3	6.61677
10.31	6.63355
10.32	6.66743
10.33	6.5967
10.34	6.60361
10.35	6.62236
10.36	6.62927
10.37	6.62434
10.38	6.64638
10.39	6.63914
10.4	6.56611
10.41	6.59637
10.42	6.53453
10.43	6.58749
10.44	6.57203
10.45	6.5592
10.46	6.57631
10.47	6.61019
10.48	6.58091
10.49	6.64736
10.5	6.60657
10.51	6.60098
10.52	6.61809
10.53	6.58256
10.54	6.59012
10.55	6.53848
10.56	6.56512
10.57	6.5796
10.58	6.53617
10.59	6.54703
10.6	6.5842
10.61	6.60591
10.62	6.53946
10.63	6.58453
10.64	6.58223
10.65	6.57631
10.66	6.5421
10.67	6.57236
10.68	6.61611
10.69	6.55394
10.7	6.53157
10.71	6.56315
10.72	6.61545
10.73	6.58782
10.74	6.53453
10.75	6.54341
10.76	6.59111
10.77	6.59703
10.78	6.59111
10.79	6.52071
10.8	6.5796
10.81	6.53585
10.82	6.53256
10.83	6.54736
10.84	6.56743
10.85	6.56085
10.86	6.54933
10.87	6.52992
10.88	6.51808
10.89	6.5296
10.9	6.5319
10.91	6.53321
10.92	6.56677
10.93	6.59999
10.94	6.51446
10.95	6.52236
10.96	6.53815
10.97	6.55723
10.98	6.56315
10.99	6.52762
11	6.58157
11.01	6.5467
11.02	6.5365
11.03	6.57006
11.04	6.57269
11.05	6.55624
11.06	6.51479
11.07	6.50492
11.08	6.60493
11.09	6.58716
11.1	6.53223
11.11	6.52466
11.12	6.50262
11.13	6.55789
11.14	6.57631
11.15	6.52828
11.16	6.57104
11.17	6.57466
11.18	6.55427
11.19	6.54539
11.2	6.48617
11.21	6.49078
11.22	6.54012
11.23	6.51216
11.24	6.48683
11.25	6.52335
11.26	6.53585
11.27	6.52861
11.28	6.54177
11.29	6.58157
11.3	6.5319
11.31	6.51052
11.32	6.53979
11.33	6.51381
11.34	6.49078
11.35	6.50756
11.36	6.52894
11.37	6.54473
11.38	6.51216
11.39	6.50821
11.4	6.50131
11.41	6.49834
11.42	6.52795
11.43	6.51085
11.44	6.55558
11.45	6.55098
11.46	6.53782
11.47	6.5171
11.48	6.5444
11.49	6.49341
11.5	6.50723
11.51	6.50591
11.52	6.49834
11.53	6.5046
11.54	6.52762
11.55	6.51216
11.56	6.48584
11.57	6.48321
11.58	6.53354
11.59	6.52203
11.6	6.50098
11.61	6.50854
11.62	6.47302
11.63	6.46973
11.64	6.55558
11.65	6.55065
11.66	6.54144
11.67	6.5092
11.68	6.51381
11.69	6.49506
11.7	6.56644
11.71	6.51611
11.72	6.48124
11.73	6.48354
11.74	6.54473
11.75	6.53716
11.76	6.51282
11.77	6.50065
11.78	6.46578
11.79	6.51117
11.8	6.48256
11.81	6.42137
11.82	6.46973
11.83	6.50756
11.84	6.48716
11.85	6.44242
11.86	6.46644
11.87	6.47334
11.88	6.49177
11.89	6.5194
11.9	6.53058
11.91	6.50492
11.92	6.47269
11.93	6.46051
11.94	6.52006
11.95	6.48256
11.96	6.47565
11.97	6.4592
11.98	6.47334
11.99	6.51578
12	6.5319
12.01	6.43749
12.02	6.50525
12.03	6.50525
12.04	6.46084
12.05	6.46742
12.06	6.46677
12.07	6.45361
12.08	6.48157
12.09	6.45657
12.1	6.43025
12.11	6.45854
12.12	6.46249
12.13	6.44078
12.14	6.44834
12.15	6.44604
12.16	6.49604
12.17	6.53091
12.18	6.48584
12.19	6.46051
12.2	6.49012
12.21	6.49769
12.22	6.5046
12.23	6.44473
12.24	6.47992
12.25	6.45788
12.26	6.44045
12.27	6.42038
12.28	6.51019
12.29	6.51282
12.3	6.53552
12.31	6.48025
12.32	6.43354
12.33	6.49275
12.34	6.42762
12.35	6.43354
12.36	6.48124
12.37	6.47005
12.38	6.47762
12.39	6.46216
12.4	6.44604
12.41	6.40657
12.42	6.42597
12.43	6.47992
12.44	6.45854
12.45	6.42104
12.46	6.47861
12.47	6.49078
12.48	6.45755
12.49	6.43058
12.5	6.48157
12.51	6.46874
12.52	6.41709
12.53	6.46479
12.54	6.46709
12.55	6.51413
12.56	6.4694
12.57	6.49506
12.58	6.44637
12.59	6.45262
12.6	6.48979
12.61	6.46019
12.62	6.47038
12.63	6.47729
12.64	6.50657
12.65	6.45854
12.66	6.48321
12.67	6.4365
12.68	6.46084
12.69	6.44045
12.7	6.47433
12.71	6.49242
12.72	6.4717
12.73	6.49012
12.74	6.52006
12.75	6.45163
12.76	6.47565
12.77	6.5092
12.78	6.4638
12.79	6.45065
12.8	6.39407
12.81	6.45525
12.82	6.50229
12.83	6.40657
12.84	6.44012
12.85	6.45657
12.86	6.45032
12.87	6.4217
12.88	6.41578
12.89	6.39176
12.9	6.4569
12.91	6.41907
12.92	6.42828
12.93	6.44144
12.94	6.46282
12.95	6.48716
12.96	6.48288
12.97	6.4865
12.98	6.45459
12.99	6.45723
13	6.46775
13.01	6.4717
13.02	6.44045
13.03	6.42367
13.04	6.45163
13.05	6.4069
13.06	6.37729
13.07	6.45426
13.08	6.39966
13.09	6.43584
13.1	6.40722
13.11	6.40163
13.12	6.41907
13.13	6.40558
13.14	6.4694
13.15	6.51085
13.16	6.43091
13.17	6.38518
13.18	6.49571
13.19	6.40393
13.2	6.42268
13.21	6.40196
13.22	6.43255
13.23	6.43222
13.24	6.40986
13.25	6.43157
13.26	6.43584
13.27	6.39275
13.28	6.4138
13.29	6.39275
13.3	6.4217
13.31	6.41249
13.32	6.3717
13.33	6.36479
13.34	6.41676
13.35	6.39966
13.36	6.40492
13.37	6.42301
13.38	6.40821
13.39	6.36117
13.4	6.42926
13.41	6.4513
13.42	6.45394
13.43	6.39834
13.44	6.41907
13.45	6.41742
13.46	6.40459
13.47	6.44045
13.48	6.36216
13.49	6.424
13.5	6.41315
13.51	6.4194
13.52	6.43486
13.53	6.43354
13.54	6.38387
13.55	6.35492
13.56	6.40887
13.57	6.41084
13.58	6.40393
13.59	6.44801
13.6	6.4365
13.61	6.41775
13.62	6.37268
13.63	6.40426
13.64	6.43091
13.65	6.39703
13.66	6.39472
13.67	6.40459
13.68	6.39209
13.69	6.40426
13.7	6.40064
13.71	6.39505
13.72	6.42828
13.73	6.45492
13.74	6.40558
13.75	6.36742
13.76	6.40525
13.77	6.36018
13.78	6.40163
13.79	6.36281
13.8	6.39571
13.81	6.42367
13.82	6.42203
13.83	6.39736
13.84	6.39209
13.85	6.37071
13.86	6.38222
13.87	6.42565
13.88	6.38946
13.89	6.36907
13.9	6.40262
13.91	6.39308
13.92	6.43255
13.93	6.43288
13.94	6.39111
13.95	6.39374
13.96	6.40854
13.97	6.41972
13.98	6.38683
13.99	6.38157
14	6.38749
14.01	6.40163
14.02	6.42894
14.03	6.40624
14.04	6.40097
14.05	6.41643
14.06	6.40163
14.07	6.43815
14.08	6.37301
14.09	6.39966
14.1	6.41545
14.11	6.41183
14.12	6.40163
14.13	6.43551
14.14	6.42894
14.15	6.44505
14.16	6.43913
14.17	6.42236
14.18	6.37499
14.19	6.44176
14.2	6.38091
14.21	6.39736
14.22	6.37137
14.23	6.38913
14.24	6.38946
14.25	6.35689
14.26	6.35262
14.27	6.46117
14.28	6.41183
14.29	6.41972
14.3	6.37828
14.31	6.37071
14.32	6.36709
14.33	6.40196
14.34	6.38025
14.35	6.39407
14.36	6.37104
14.37	6.39637
14.38	6.37005
14.39	6.39966
14.4	6.40821
14.41	6.3217
14.42	6.37762
14.43	6.3638
14.44	6.31183
14.45	6.349
14.46	6.36907
14.47	6.32301
14.48	6.36972
14.49	6.38979
14.5	6.36578
14.51	6.43486
14.52	6.37301
14.53	6.34768
14.54	6.35097
14.55	6.32005
14.56	6.36347
14.57	6.38584
14.58	6.31709
14.59	6.31084
14.6	6.39275
14.61	6.42894
14.62	6.37597
14.63	6.39867
14.64	6.36018
14.65	6.40426
14.66	6.35788
14.67	6.34242
14.68	6.35953
14.69	6.36972
14.7	6.41512
14.71	6.40525
14.72	6.44538
14.73	6.38321
14.74	6.36709
14.75	6.32795
14.76	6.37005
14.77	6.39736
14.78	6.39275
14.79	6.34933
14.8	6.33847
14.81	6.34439
14.82	6.41676
14.83	6.39999
14.84	6.3365
14.85	6.39111
14.86	6.38518
14.87	6.32762
14.88	6.34505
14.89	6.36479
14.9	6.39045
14.91	6.36841
14.92	6.37038
14.93	6.34735
14.94	6.35689
14.95	6.38584
14.96	6.35854
14.97	6.34999
14.98	6.32301
14.99	6.36018
15	6.31577
15.01	6.37104
15.02	6.32893
15.03	6.34867
15.04	6.32597
15.05	6.33913
15.06	6.37104
15.07	6.34834
15.08	6.35097
15.09	6.31841
15.1	6.33749
15.11	6.37959
15.12	6.35624
15.13	6.34768
15.14	6.30623
15.15	6.3536
15.16	6.36841
15.17	6.31939
15.18	6.31775
15.19	6.34735
15.2	6.31643
15.21	6.34077
15.22	6.31248
15.23	6.30689
15.24	6.35854
15.25	6.34933
15.26	6.35328
15.27	6.34045
15.28	6.34012
15.29	6.3138
15.3	6.35229
15.31	6.32597
15.32	6.34012
15.33	6.33551
15.34	6.34341
15.35	6.34209
15.36	6.33222
15.37	6.36709
15.38	6.34439
15.39	6.40196
15.4	6.33749
15.41	6.31643
15.42	6.32597
15.43	6.38288
15.44	6.35656
15.45	6.36775
15.46	6.38387
15.47	6.34538
15.48	6.31314
15.49	6.36479
15.5	6.31117
15.51	6.35328
15.52	6.35459
15.53	6.34867
15.54	6.31018
15.55	6.30196
15.56	6.32268
15.57	6.37334
15.58	6.36084
15.59	6.45163
15.6	6.32762
15.61	6.34637
15.62	6.3717
15.63	6.33156
15.64	6.324
15.65	6.35722
15.66	6.30229
15.67	6.37235
15.68	6.38979
15.69	6.36939
15.7	6.34209
15.71	6.30623
15.72	6.31775
15.73	6.3638
15.74	6.3263
15.75	6.31775
15.76	6.31183
15.77	6.3036
15.78	6.34768
15.79	6.33913
15.8	6.3638
15.81	6.34374
15.82	6.34933
15.83	6.34571
15.84	6.34867
15.85	6.33025
15.86	6.33222
15.87	6.35196
15.88	6.28222
15.89	6.3115
15.9	6.33354
15.91	6.33058
15.92	6.32729
15.93	6.33584
15.94	6.3638
15.95	6.30985
15.96	6.31577
15.97	6.35591
15.98	6.32696
15.99	6.3036
16	6.32564
16.01	6.30919
16.02	6.25064
16.03	6.3263
16.04	6.33814
16.05	6.33979
16.06	6.29966
16.07	6.3388
16.08	6.32893
16.09	6.33617
16.1	6.28222
16.11	6.29242
16.12	6.27038
16.13	6.31808
16.14	6.32795
16.15	6.32795
16.16	6.24768
16.17	6.30163
16.18	6.2786
16.19	6.32005
16.2	6.37499
16.21	6.38485
16.22	6.33749
16.23	6.2865
16.24	6.31314
16.25	6.32071
16.26	6.31479
16.27	6.39341
16.28	6.31281
16.29	6.30689
16.3	6.32268
16.31	6.30591
16.32	6.35262
16.33	6.28222
16.34	6.28123
16.35	6.30755
16.36	6.32038
16.37	6.35229
16.38	6.34209
16.39	6.31808
16.4	6.3286
16.41	6.32202
16.42	6.35591
16.43	6.32597
16.44	6.31446
16.45	6.28321
16.46	6.35525
16.47	6.30064
16.48	6.3263
16.49	6.349
16.5	6.31347
16.51	6.32531
16.52	6.29867
16.53	6.35097
16.54	6.32071
16.55	6.33189
16.56	6.3388
16.57	6.34374
16.58	6.34012
16.59	6.26873
16.6	6.25327
16.61	6.29143
16.62	6.2684
16.63	6.30262
16.64	6.2888
16.65	6.33749
16.66	6.33749
16.67	6.31281
16.68	6.30854
16.69	6.33255
16.7	6.31446
16.71	6.30788
16.72	6.28551
16.73	6.27827
16.74	6.2809
16.75	6.26347
16.76	6.2888
16.77	6.2786
16.78	6.29308
16.79	6.30459
16.8	6.3217
16.81	6.3217
16.82	6.26051
16.83	6.33025
16.84	6.30591
16.85	6.31808
16.86	6.34637
16.87	6.34834
16.88	6.28551
16.89	6.2638
16.9	6.33321
16.91	6.34801
16.92	6.23715
16.93	6.2559
16.94	6.29735
16.95	6.28913
16.96	6.29275
16.97	6.31512
16.98	6.3138
16.99	6.25919
17	6.28781
17.01	6.3536
17.02	6.28781
17.03	6.31314
17.04	6.29867
17.05	6.26248
17.06	6.28485
17.07	6.28584
17.08	6.28518
17.09	6.38025
17.1	6.33617
17.11	6.28321
17.12	6.28058
17.13	6.32597
17.14	6.29176
17.15	6.30163
17.16	6.28748
17.17	6.2911
17.18	6.26511
17.19	6.26347
17.2	6.32893
17.21	6.32137
17.22	6.28847
17.23	6.30821
17.24	6.27696
17.25	6.3342
17.26	6.30426
17.27	6.31084
17.28	6.28387
17.29	6.274
17.3	6.25163
17.31	6.27367
17.32	6.31018
17.33	6.2786
17.34	6.25821
17.35	6.27597
17.36	6.30426
17.37	6.31084
17.38	6.31775
17.39	6.33683
17.4	6.29735
17.41	6.23156
17.42	6.28156
17.43	6.28814
17.44	6.34012
17.45	6.28946
17.46	6.28683
17.47	6.30294
17.48	6.31183
17.49	6.28781
17.5	6.27564
17.51	6.28617
17.52	6.28321
17.53	6.36084
17.54	6.32663
17.55	6.27564
17.56	6.299
17.57	6.27498
17.58	6.32202
17.59	6.27005
17.6	6.1911
17.61	6.25459
17.62	6.29801
17.63	6.32564
17.64	6.33946
17.65	6.324
17.66	6.3263
17.67	6.30196
17.68	6.29604
17.69	6.33124
17.7	6.30031
17.71	6.31643
17.72	6.26676
17.73	6.26873
17.74	6.28979
17.75	6.29143
17.76	6.29538
17.77	6.29012
17.78	6.29571
17.79	6.33321
17.8	6.26972
17.81	6.3036
17.82	6.31775
17.83	6.2638
17.84	6.28814
17.85	6.29341
17.86	6.32202
17.87	6.27498
17.88	6.31643
17.89	6.32005
17.9	6.31051
17.91	6.23781
17.92	6.24834
17.93	6.28781
17.94	6.2684
17.95	6.28485
17.96	6.30887
17.97	6.27005
17.98	6.26873
17.99	6.2536
18	6.29637
18.01	6.29966
18.02	6.27564
18.03	6.31841
18.04	6.31347
18.05	6.28781
18.06	6.25689
18.07	6.29604
18.08	6.28025
18.09	6.34439
18.1	6.30558
18.11	6.23123
18.12	6.29308
18.13	6.25985
18.14	6.28452
18.15	6.3013
18.16	6.27762
18.17	6.31248
18.18	6.28387
18.19	6.25196
18.2	6.25492
18.21	6.23353
18.22	6.29275
18.23	6.30163
18.24	6.29012
18.25	6.27959
18.26	6.24307
18.27	6.28321
18.28	6.32038
18.29	6.26577
18.3	6.33617
18.31	6.31841
18.32	6.27794
18.33	6.30426
18.34	6.27926
18.35	6.31906
18.36	6.30591
18.37	6.28419
18.38	6.29834
18.39	6.25229
18.4	6.25327
18.41	6.25031
18.42	6.24702
18.43	6.28715
18.44	6.29801
18.45	6.27729
18.46	6.30887
18.47	6.26972
18.48	6.25294
18.49	6.33749
18.5	6.26281
18.51	6.27926
18.52	6.21939
18.53	6.22038
18.54	6.29867
18.55	6.25821
18.56	6.26051
18.57	6.25163
18.58	6.27926
18.59	6.29308
18.6	6.26281
18.61	6.31841
18.62	6.30919
18.63	6.2559
18.64	6.29867
18.65	6.29867
18.66	6.27202
18.67	6.27005
18.68	6.26281
18.69	6.27959
18.7	6.23321
18.71	6.224
18.72	6.26643
18.73	6.2865
18.74	6.24669
18.75	6.28222
18.76	6.29439
18.77	6.33847
18.78	6.26413
18.79	6.26643
18.8	6.28189
18.81	6.27071
18.82	6.27729
18.83	6.30097
18.84	6.32827
18.85	6.30196
18.86	6.25294
18.87	6.23913
18.88	6.24768
18.89	6.24176
18.9	6.26808
18.91	6.30294
18.92	6.34637
18.93	6.33814
18.94	6.26643
18.95	6.24406
18.96	6.23946
18.97	6.27071
18.98	6.27005
18.99	6.30887
19	6.274
19.01	6.25952
19.02	6.2411
19.03	6.24932
19.04	6.31183
19.05	6.2661
19.06	6.26314
19.07	6.27827
19.08	6.25525
19.09	6.28551
19.1	6.27663
19.11	6.25459
19.12	6.3365
19.13	6.28617
19.14	6.29439
19.15	6.26117
19.16	6.19899
19.17	6.29801
19.18	6.2434
19.19	6.23946
19.2	6.21117
19.21	6.25788
19.22	6.29505
19.23	6.28156
19.24	6.25821
19.25	6.28222
19.26	6.24472
19.27	6.27893
19.28	6.25919
19.29	6.28189
19.3	6.30788
19.31	6.24669
19.32	6.27301
19.33	6.25558
19.34	6.25788
19.35	6.22334
19.36	6.25788
19.37	6.21939
19.38	6.21149
19.39	6.24571
19.4	6.22071
19.41	6.20228
19.42	6.27729
19.43	6.30064
19.44	6.23682
19.45	6.26939
19.46	6.24801
19.47	6.27202
19.48	6.2513
19.49	6.29012
19.5	6.26051
19.51	6.27794
19.52	6.24735
19.53	6.23189
19.54	6.19143
19.55	6.24439
19.56	6.26939
19.57	6.27729
19.58	6.26511
19.59	6.23584
19.6	6.24636
19.61	6.24669
19.62	6.24998
19.63	6.27301
19.64	6.26906
19.65	6.25327
19.66	6.21643
19.67	6.21972
19.68	6.24242
19.69	6.26446
19.7	6.2388
19.71	6.23617
19.72	6.25031
19.73	6.24801
19.74	6.25426
19.75	6.2513
19.76	6.19209
19.77	6.26939
19.78	6.299
19.79	6.23946
19.8	6.2263
19.81	6.2684
19.82	6.19603
19.83	6.18288
19.84	6.22498
19.85	6.25919
19.86	6.29406
19.87	6.25788
19.88	6.25163
19.89	6.23386
19.9	6.23814
19.91	6.24636
19.92	6.25985
19.93	6.27696
19.94	6.27926
19.95	6.2434
19.96	6.23485
19.97	6.21873
19.98	6.25327
19.99	6.26709
20	6.2763
20.01	6.24965
20.02	6.27992
20.03	6.27729
20.04	6.27794
20.05	6.26314
20.06	6.32663
20.07	6.2888
20.08	6.24275
20.09	6.26544
20.1	6.23617
20.11	6.24965
20.12	6.21742
20.13	6.30229
20.14	6.23156
20.15	6.21248
20.16	6.21939
20.17	6.25755
20.18	6.18288
20.19	6.19735
20.2	6.26281
20.21	6.27498
20.22	6.23551
20.23	6.2365
20.24	6.28321
20.25	6.24373
20.26	6.20228
20.27	6.24143
20.28	6.27268
20.29	6.25985
20.3	6.25985
20.31	6.2661
20.32	6.28058
20.33	6.25064
20.34	6.2263
20.35	6.25854
20.36	6.21051
20.37	6.22071
20.38	6.26643
20.39	6.22728
20.4	6.23419
20.41	6.23847
20.42	6.27268
20.43	6.28255
20.44	6.25393
20.45	6.26808
20.46	6.25854
20.47	6.25788
20.48	6.25393
20.49	6.25722
20.5	6.24571
20.51	6.26577
20.52	6.21807
20.53	6.22728
20.54	6.24768
20.55	6.23748
20.56	6.23979
20.57	6.21182
20.58	6.28946
20.59	6.2638
20.6	6.20919
20.61	6.26183
20.62	6.29044
20.63	6.24505
20.64	6.19834
20.65	6.23419
20.66	6.25558
20.67	6.28189
20.68	6.22103
20.69	6.26215
20.7	6.25952
20.71	6.25623
20.72	6.2615
20.73	6.21972
20.74	6.29702
20.75	6.26347
20.76	6.22663
20.77	6.26808
20.78	6.22169
20.79	6.2809
20.8	6.24801
20.81	6.24373
20.82	6.29439
20.83	6.23715
20.84	6.18255
20.85	6.19373
20.86	6.25426
20.87	6.2513
20.88	6.28715
20.89	6.29275
20.9	6.26676
20.91	6.24044
20.92	6.21807
20.93	6.2763
20.94	6.23353
20.95	6.23518
20.96	6.25426
20.97	6.27071
20.98	6.24176
20.99	6.22663
21	6.25985
21.01	6.28058
21.02	6.22465
21.03	6.16544
21.04	6.20755
21.05	6.24011
21.06	6.23288
21.07	6.24636
21.08	6.2684
21.09	6.25229
21.1	6.26511
21.11	6.27433
21.12	6.26906
21.13	6.2638
21.14	6.24307
21.15	6.24472
21.16	6.18945
21.17	6.21643
21.18	6.24768
21.19	6.249
21.2	6.2263
21.21	6.24604
21.22	6.20492
21.23	6.21544
21.24	6.25393
21.25	6.25393
21.26	6.27827
21.27	6.249
21.28	6.224
21.29	6.22071
21.3	6.23452
21.31	6.24472
21.32	6.26544
21.33	6.25985
21.34	6.24702
21.35	6.21084
21.36	6.2638
21.37	6.25656
21.38	6.20163
21.39	6.24867
21.4	6.26873
21.41	6.26018
21.42	6.27433
21.43	6.2615
21.44	6.26084
21.45	6.18847
21.46	6.20426
21.47	6.25261
21.48	6.25722
21.49	6.26577
21.5	6.22663
21.51	6.23748
21.52	6.26808
21.53	6.23321
21.54	6.24373
21.55	6.249
21.56	6.25492
21.57	6.24604
21.58	6.21051
21.59	6.23946
21.6	6.21446
21.61	6.26775
21.62	6.2661
21.63	6.1638
21.64	6.24538
21.65	6.26446
21.66	6.20919
21.67	6.19702
21.68	6.22367
21.69	6.23946
21.7	6.2809
21.71	6.28979
21.72	6.29308
21.73	6.29637
21.74	6.22959
21.75	6.24439
21.76	6.17005
21.77	6.27531
21.78	6.2411
21.79	6.21939
21.8	6.25525
21.81	6.274
21.82	6.19768
21.83	6.16445
21.84	6.23288
21.85	6.23913
21.86	6.21446
21.87	6.19867
21.88	6.24011
21.89	6.26215
21.9	6.21676
21.91	6.21906
21.92	6.23288
21.93	6.24636
21.94	6.25755
21.95	6.26051
21.96	6.23057
21.97	6.22038
21.98	6.22038
21.99	6.20722
22	6.22071
22.01	6.31084
22.02	6.2559
22.03	6.23715
22.04	6.24373
22.05	6.22564
22.06	6.20689
22.07	6.2763
22.08	6.26479
22.09	6.25886
22.1	6.24011
22.11	6.27367
22.12	6.27104
22.13	6.22136
22.14	6.22005
22.15	6.23386
22.16	6.18781
22.17	6.23452
22.18	6.25919
22.19	6.26018
22.2	6.25854
22.21	6.23419
22.22	6.25393
22.23	6.21018
22.24	6.22169
22.25	6.28354
22.26	6.26281
22.27	6.2388
22.28	6.24735
22.29	6.24209
22.3	6.21643
22.31	6.19998
22.32	6.20492
22.33	6.1934
22.34	6.22005
22.35	6.23057
22.36	6.19077
22.37	6.22432
22.38	6.22038
22.39	6.22136
22.4	6.20393
22.41	6.24242
22.42	6.23321
22.43	6.24636
22.44	6.22761
22.45	6.17992
22.46	6.23288
22.47	6.26117
22.48	6.24604
22.49	6.20952
22.5	6.25229
22.51	6.20919
22.52	6.1832
22.53	6.22334
22.54	6.23255
22.55	6.25196
22.56	6.21478
22.57	6.18715
22.58	6.22169
22.59	6.23255
22.6	6.17959
22.61	6.22761
22.62	6.23057
22.63	6.25952
22.64	6.19439
22.65	6.23156
22.66	6.24373
22.67	6.19867
22.68	6.21051
22.69	6.25064
22.7	6.24571
22.71	6.27893
22.72	6.2309
22.73	6.2309
22.74	6.23321
22.75	6.23025
22.76	6.22202
22.77	6.21742
22.78	6.18682
22.79	6.19801
22.8	6.17005
22.81	6.23682
22.82	6.21314
22.83	6.23025
22.84	6.2309
22.85	6.2536
22.86	6.22432
22.87	6.20985
22.88	6.25525
22.89	6.28288
22.9	6.22761
22.91	6.22498
22.92	6.20755
22.93	6.18913
22.94	6.20722
22.95	6.21413
22.96	6.25064
22.97	6.19505
22.98	6.19702
22.99	6.2286
23	6.19242
23.01	6.19834
23.02	6.20393
23.03	6.20623
23.04	6.23781
23.05	6.21478
23.06	6.19932
23.07	6.20163
23.08	6.26873
23.09	6.23979
23.1	6.20294
23.11	6.20919
23.12	6.15524
23.13	6.18748
23.14	6.24472
23.15	6.22761
23.16	6.22696
23.17	6.20788
23.18	6.20886
23.19	6.23255
23.2	6.15853
23.21	6.17465
23.22	6.2161
23.23	6.23025
23.24	6.24669
23.25	6.26281
23.26	6.20524
23.27	6.22531
23.28	6.25886
23.29	6.2559
23.3	6.24669
23.31	6.22564
23.32	6.25623
23.33	6.19768
23.34	6.16676
23.35	6.14768
23.36	6.21182
23.37	6.23288
23.38	6.24011
23.39	6.21413
23.4	6.22597
23.41	6.21807
23.42	6.19472
23.43	6.23386
23.44	6.21281
23.45	6.22334
23.46	6.23386
23.47	6.21248
23.48	6.2161
23.49	6.19143
23.5	6.22663
23.51	6.19899
23.52	6.19965
23.53	6.19867
23.54	6.24472
23.55	6.19702
23.56	6.17465
23.57	6.25492
23.58	6.19307
23.59	6.20656
23.6	6.26183
23.61	6.19472
23.62	6.23485
23.63	6.25722
23.64	6.249
23.65	6.18123
23.66	6.18847
23.67	6.22301
23.68	6.2434
23.69	6.23946
23.7	6.22926
23.71	6.21742
23.72	6.20722
23.73	6.17235
23.74	6.24275
23.75	6.24669
23.76	6.19274
23.77	6.22071
23.78	6.26117
23.79	6.21742
23.8	6.13057
23.81	6.19669
23.82	6.2161
23.83	6.21347
23.84	6.22465
23.85	6.22794
23.86	6.20755
23.87	6.1434
23.88	6.19538
23.89	6.23847
23.9	6.23748
23.91	6.2411
23.92	6.2388
23.93	6.21051
23.94	6.23847
23.95	6.25229
23.96	6.21478
23.97	6.25886
23.98	6.22136
23.99	6.1911
24	6.20327
24.01	6.24011
24.02	6.23781
24.03	6.18123
24.04	6.20031
24.05	6.22992
24.06	6.22071
24.07	6.21117
24.08	6.20196
24.09	6.22202
24.1	6.22794
24.11	6.25261
24.12	6.18386
24.13	6.2036
24.14	6.2184
24.15	6.16741
24.16	6.19636
24.17	6.18353
24.18	6.21511
24.19	6.19406
24.2	6.20557
24.21	6.23288
24.22	6.23025
24.23	6.20557
24.24	6.23584
24.25	6.22005
24.26	6.26775
24.27	6.20886
24.28	6.20097
24.29	6.20952
24.3	6.21084
24.31	6.21248
24.32	6.21807
24.33	6.19899
24.34	6.21478
24.35	6.23255
24.36	6.2434
24.37	6.20459
24.38	6.20722
24.39	6.18748
24.4	6.19242
24.41	6.16544
24.42	6.2184
24.43	6.24669
24.44	6.24176
24.45	6.21511
24.46	6.23485
24.47	6.1934
24.48	6.19768
24.49	6.19242
24.5	6.21709
24.51	6.19011
24.52	6.22696
24.53	6.2138
24.54	6.19077
24.55	6.21511
24.56	6.18189
24.57	6.1911
24.58	6.21511
24.59	6.15524
24.6	6.19636
24.61	6.23288
24.62	6.1957
24.63	6.18584
24.64	6.25031
24.65	6.18057
24.66	6.2184
24.67	6.20689
24.68	6.24044
24.69	6.17893
24.7	6.18584
24.71	6.20656
24.72	6.17399
24.73	6.20064
24.74	6.18024
24.75	6.25393
24.76	6.18353
24.77	6.19669
24.78	6.19439
24.79	6.20228
24.8	6.19834
24.81	6.20031
24.82	6.1559
24.83	6.20327
24.84	6.20557
24.85	6.18255
24.86	6.20031
24.87	6.17794
24.88	6.15459
24.89	6.18485
24.9	6.16478
24.91	6.22038
24.92	6.20788
24.93	6.17465
24.94	6.16741
24.95	6.24801
24.96	6.20985
24.97	6.19538
24.98	6.22268
24.99	6.26413
25	6.20919
25.01	6.17432
25.02	6.16116
25.03	6.22432
25.04	6.19867
25.05	6.1934
25.06	6.17432
25.07	6.21215
25.08	6.28189
25.09	6.24702
25.1	6.19702
25.11	6.1911
25.12	6.20492
25.13	6.22038
25.14	6.18518
25.15	6.20459
25.16	6.21577
25.17	6.20064
25.18	6.21281
25.19	6.2059
25.2	6.16939
25.21	6.21084
25.22	6.1536
25.23	6.19274
25.24	6.19373
25.25	6.24373
25.26	6.24834
25.27	6.18814
25.28	6.23946
25.29	6.20426
25.3	6.2263
25.31	6.19538
25.32	6.18814
25.33	6.18057
25.34	6.21182
25.35	6.21084
25.36	6.1661
25.37	6.21149
25.38	6.23682
25.39	6.21281
25.4	6.16774
25.41	6.15886
25.42	6.2161
25.43	6.22663
25.44	6.21577
25.45	6.24406
25.46	6.20689
25.47	6.22794
25.48	6.21709
25.49	6.21643
25.5	6.22761
25.51	6.20755
25.52	6.17465
25.53	6.20327
25.54	6.16807
25.55	6.22169
25.56	6.20228
25.57	6.18057
25.58	6.19899
25.59	6.20261
25.6	6.15261
25.61	6.21149
25.62	6.20393
25.63	6.23156
25.64	6.17498
25.65	6.20853
25.66	6.20031
25.67	6.20788
25.68	6.18715
25.69	6.23452
25.7	6.18617
25.71	6.22531
25.72	6.2184
25.73	6.16248
25.74	6.14373
25.75	6.1411
25.76	6.20097
25.77	6.19867
25.78	6.23255
25.79	6.20163
25.8	6.20919
25.81	6.21939
25.82	6.22005
25.83	6.2286
25.84	6.22367
25.85	6.19867
25.86	6.2184
25.87	6.24077
25.88	6.17827
25.89	6.21215
25.9	6.1888
25.91	6.19077
25.92	6.24439
25.93	6.22268
25.94	6.17827
25.95	6.21446
25.96	6.22169
25.97	6.19307
25.98	6.17432
25.99	6.19768
26	6.23057
26.01	6.19834
26.02	6.18584
26.03	6.19439
26.04	6.20031
26.05	6.23222
26.06	6.17432
26.07	6.19373
26.08	6.21643
26.09	6.21643
26.1	6.24406
26.11	6.20064
26.12	6.18847
26.13	6.24604
26.14	6.20623
26.15	6.22169
26.16	6.21446
26.17	6.19406
26.18	6.24011
26.19	6.21906
26.2	6.21775
26.21	6.21347
26.22	6.21577
26.23	6.16544
26.24	6.22136
26.25	6.20689
26.26	6.20426
26.27	6.1888
26.28	6.17761
26.29	6.16972
26.3	6.18913
26.31	6.22893
26.32	6.17893
26.33	6.19932
26.34	6.22005
26.35	6.18551
26.36	6.26084
26.37	6.20788
26.38	6.18123
26.39	6.21182
26.4	6.21117
26.41	6.2559
26.42	6.19472
26.43	6.18024
26.44	6.20163
26.45	6.20821
26.46	6.22498
26.47	6.18781
26.48	6.28189
26.49	6.2365
26.5	6.21347
26.51	6.20064
26.52	6.20228
26.53	6.22268
26.54	6.22038
26.55	6.20459
26.56	6.20689
26.57	6.20228
26.58	6.19768
26.59	6.17366
26.6	6.18781
26.61	6.22498
26.62	6.21906
26.63	6.19406
26.64	6.21314
26.65	6.18781
26.66	6.14636
26.67	6.19439
26.68	6.21347
26.69	6.16577
26.7	6.15228
26.71	6.20821
26.72	6.21807
26.73	6.2388
26.74	6.18156
26.75	6.1809
26.76	6.23222
26.77	6.26347
26.78	6.24143
26.79	6.2138
26.8	6.22696
26.81	6.17465
26.82	6.16676
26.83	6.17169
26.84	6.21347
26.85	6.21215
26.86	6.21709
26.87	6.15985
26.88	6.15228
26.89	6.28058
26.9	6.23255
26.91	6.20755
26.92	6.19538
26.93	6.24505
26.94	6.24932
26.95	6.1832
26.96	6.20788
26.97	6.21577
26.98	6.1957
26.99	6.21643
27	6.19965
27.01	6.17926
27.02	6.17959
27.03	6.17827
27.04	6.18222
27.05	6.21215
27.06	6.20985
27.07	6.1661
27.08	6.18386
27.09	6.17761
27.1	6.13156
27.11	6.16676
27.12	6.19538
27.13	6.18781
27.14	6.19143
27.15	6.13781
27.16	6.20492
27.17	6.19274
27.18	6.19768
27.19	6.20064
27.2	6.22136
27.21	6.22893
27.22	6.20228
27.23	6.17038
27.24	6.20327
27.25	6.20755
27.26	6.16643
27.27	6.18024
27.28	6.23518
27.29	6.249
27.3	6.21939
27.31	6.16149
27.32	6.15656
27.33	6.24307
27.34	6.22432
27.35	6.20524
27.36	6.19143
27.37	6.20163
27.38	6.17728
27.39	6.17893
27.4	6.20656
27.41	6.20557
27.42	6.1888
27.43	6.17103
27.44	6.24965
27.45	6.18913
27.46	6.20788
27.47	6.20097
27.48	6.14735
27.49	6.19176
27.5	6.18255
27.51	6.16413
27.52	6.21906
27.53	6.20623
27.54	6.25656
27.55	6.2286
27.56	6.20196
27.57	6.1513
27.58	6.17597
27.59	6.22827
27.6	6.16676
27.61	6.22038
27.62	6.20788
27.63	6.19143
27.64	6.22136
27.65	6.15623
27.66	6.19143
27.67	6.14406
27.68	6.17498
27.69	6.20755
27.7	6.23584
27.71	6.20656
27.72	6.19242
27.73	6.18781
27.74	6.19899
27.75	6.21347
27.76	6.17432
27.77	6.14537
27.78	6.18617
27.79	6.15031
27.8	6.15853
27.81	6.17827
27.82	6.18123
27.83	6.22498
27.84	6.21544
27.85	6.21544
27.86	6.20426
27.87	6.19406
27.88	6.19406
27.89	6.21413
27.9	6.19505
27.91	6.21117
27.92	6.21413
27.93	6.18617
27.94	6.17498
27.95	6.17498
27.96	6.17498
27.97	6.2263
27.98	6.20952
27.99	6.22235
28	6.16709
28.01	6.24834
28.02	6.22498
28.03	6.16676
28.04	6.17268
28.05	6.19932
28.06	6.19439
28.07	6.21446
28.08	6.20689
28.09	6.21709
28.1	6.22005
28.11	6.22136
28.12	6.23946
28.13	6.23057
28.14	6.19636
28.15	6.20031
28.16	6.19176
28.17	6.15919
28.18	6.20459
28.19	6.20722
28.2	6.20393
28.21	6.23123
28.22	6.18847
28.23	6.20821
28.24	6.18255
28.25	6.21906
28.26	6.17959
28.27	6.16248
28.28	6.20426
28.29	6.25722
28.3	6.22696
28.31	6.15261
28.32	6.1332
28.33	6.21643
28.34	6.20919
28.35	6.18485
28.36	6.19965
28.37	6.22794
28.38	6.22959
28.39	6.21643
28.4	6.1934
28.41	6.18715
28.42	6.17432
28.43	6.19636
28.44	6.20623
28.45	6.19932
28.46	6.21281
28.47	6.12794
28.48	6.20623
28.49	6.21248
28.5	6.19801
28.51	6.16741
28.52	6.21281
28.53	6.23715
28.54	6.2411
28.55	6.21807
28.56	6.18386
28.57	6.17893
28.58	6.21051
28.59	6.1888
28.6	6.15689
28.61	6.16972
28.62	6.20327
28.63	6.17268
28.64	6.1911
28.65	6.14307
28.66	6.17432
28.67	6.22071
28.68	6.19735
28.69	6.17761
28.7	6.1911
28.71	6.18814
28.72	6.17992
28.73	6.16445
28.74	6.1638
28.75	6.1786
28.76	6.14505
28.77	6.19899
28.78	6.18353
28.79	6.17695
28.8	6.15327
28.81	6.19505
28.82	6.21117
28.83	6.18945
28.84	6.16972
28.85	6.18189
28.86	6.18551
28.87	6.24209
28.88	6.22235
28.89	6.21577
28.9	6.19011
28.91	6.1707
28.92	6.13912
28.93	6.19636
28.94	6.17465
28.95	6.19636
28.96	6.19373
28.97	6.18584
28.98	6.15689
28.99	6.22367
29	6.20031
29.01	6.24176
29.02	6.17202
29.03	6.15162
29.04	6.17531
29.05	6.21215
29.06	6.1786
29.07	6.1934
29.08	6.17465
29.09	6.2309
29.1	6.19834
29.11	6.18913
29.12	6.16643
29.13	6.18748
29.14	6.15689
29.15	6.20097
29.16	6.18649
29.17	6.15261
29.18	6.1934
29.19	6.24011
29.2	6.20722
29.21	6.22169
29.22	6.21018
29.23	6.18682
29.24	6.17169
29.25	6.18551
29.26	6.18748
29.27	6.15294
29.28	6.16807
29.29	6.20755
29.3	6.20853
29.31	6.21084
29.32	6.22564
29.33	6.2138
29.34	6.18847
29.35	6.19702
29.36	6.22564
29.37	6.2013
29.38	6.18913
29.39	6.1513
29.4	6.16972
29.41	6.16084
29.42	6.19011
29.43	6.19274
29.44	6.1707
29.45	6.1809
29.46	6.23485
29.47	6.1934
29.48	6.22202
29.49	6.20459
29.5	6.10656
29.51	6.1661
29.52	6.17301
29.53	6.21807
29.54	6.17103
29.55	6.21807
29.56	6.19176
29.57	6.21018
29.58	6.15031
29.59	6.15064
29.6	6.1559
29.61	6.15787
29.62	6.19768
29.63	6.18978
29.64	6.20327
29.65	6.19176
29.66	6.22794
29.67	6.20492
29.68	6.21577
29.69	6.18353
29.7	6.21939
29.71	6.21544
29.72	6.15228
29.73	6.17301
29.74	6.18419
29.75	6.19834
29.76	6.18682
29.77	6.15426
29.78	6.17827
29.79	6.12366
29.8	6.14406
29.81	6.19998
29.82	6.18518
29.83	6.17103
29.84	6.14834
29.85	6.1809
29.86	6.15755
29.87	6.19702
29.88	6.20393
29.89	6.16676
29.9	6.19011
29.91	6.18781
29.92	6.14274
29.93	6.16774
29.94	6.14866
29.95	6.16116
29.96	6.17794
29.97	6.16478
29.98	6.15985
29.99	6.20821
30	6.17169
30.01	6.12037
30.02	6.18255
30.03	6.18617
30.04	6.1638
30.05	6.17597
30.06	6.20196
30.07	6.21018
30.08	6.21972
30.09	6.21511
30.1	6.16577
30.11	6.13649
30.12	6.11051
30.13	6.2013
30.14	6.19603
30.15	6.16347
30.16	6.15426
30.17	6.19439
30.18	6.16906
30.19	6.17235
30.2	6.17827
30.21	6.20919
30.22	6.2036
30.23	6.17038
30.24	6.18584
30.25	6.19669
30.26	6.18452
30.27	6.14406
30.28	6.16051
30.29	6.18748
30.3	6.23189
30.31	6.19176
30.32	6.20623
30.33	6.19735
30.34	6.17235
30.35	6.14176
30.36	6.17498
30.37	6.17992
30.38	6.16676
30.39	6.18057
30.4	6.13912
30.41	6.17695
30.42	6.22992
30.43	6.22301
30.44	6.17169
30.45	6.13748
30.46	6.1536
30.47	6.23781
30.48	6.20492
30.49	6.16215
30.5	6.15919
30.51	6.17531
30.52	6.16577
30.53	6.18419
30.54	6.18551
30.55	6.1934
30.56	6.13945
30.57	6.10458
30.58	6.16774
30.59	6.18518
30.6	6.16774
30.61	6.15623
30.62	6.18682
30.63	6.17235
30.64	6.15393
30.65	6.19274
30.66	6.16577
30.67	6.1411
30.68	6.19143
30.69	6.17235
30.7	6.18682
30.71	6.21577
30.72	6.19373
30.73	6.15886
30.74	6.18288
30.75	6.16478
30.76	6.15656
30.77	6.17893
30.78	6.16084
30.79	6.17597
30.8	6.19044
30.81	6.22432
30.82	6.20985
30.83	6.16643
30.84	6.17301
30.85	6.18978
30.86	6.18551
30.87	6.16281
30.88	6.18945
30.89	6.22334
30.9	6.17465
30.91	6.18386
30.92	6.19538
30.93	6.22926
30.94	6.16873
30.95	6.16347
30.96	6.16314
30.97	6.16413
30.98	6.18255
30.99	6.16807
31	6.17531
31.01	6.10294
31.02	6.15985
31.03	6.15689
31.04	6.14208
31.05	6.15985
31.06	6.1661
31.07	6.14143
31.08	6.11741
31.09	6.1638
31.1	6.15689
31.11	6.20426
31.12	6.17564
31.13	6.15755
31.14	6.18189
31.15	6.14505
31.16	6.15919
31.17	6.16873
31.18	6.2059
31.19	6.19242
31.2	6.17005
31.21	6.19242
31.22	6.18814
31.23	6.22465
31.24	6.19735
31.25	6.20426
31.26	6.15459
31.27	6.18057
31.28	6.18485
31.29	6.16709
31.3	6.1832
31.31	6.22136
31.32	6.22367
31.33	6.21215
31.34	6.19834
31.35	6.17202
31.36	6.1559
31.37	6.16906
31.38	6.14702
31.39	6.16807
31.4	6.1434
31.41	6.19932
31.42	6.18419
31.43	6.13978
31.44	6.14965
31.45	6.21413
31.46	6.20689
31.47	6.14932
31.48	6.16676
31.49	6.23123
31.5	6.16873
31.51	6.15491
31.52	6.16709
31.53	6.11379
31.54	6.14505
31.55	6.17531
31.56	6.15886
31.57	6.15722
31.58	6.10524
31.59	6.17695
31.6	6.1684
31.61	6.12728
31.62	6.14439
31.63	6.21742
31.64	6.16116
31.65	6.19077
31.66	6.20097
31.67	6.16116
31.68	6.17498
31.69	6.17564
31.7	6.20821
31.71	6.15459
31.72	6.17103
31.73	6.20985
31.74	6.17366
31.75	6.21248
31.76	6.16577
31.77	6.12893
31.78	6.21117
31.79	6.21413
31.8	6.18715
31.81	6.19439
31.82	6.19044
31.83	6.20886
31.84	6.16413
31.85	6.17235
31.86	6.21051
31.87	6.17334
31.88	6.16643
31.89	6.15491
31.9	6.15261
31.91	6.15228
31.92	6.23584
31.93	6.1559
31.94	6.14636
31.95	6.20722
31.96	6.19406
31.97	6.16774
31.98	6.17564
31.99	6.15689
32	6.14702
32.01	6.15195
32.02	6.16084
32.03	6.19834
32.04	6.17992
32.05	6.13616
32.06	6.16347
32.07	6.11445
32.08	6.18452
32.09	6.18649
32.1	6.17959
32.11	6.17465
32.12	6.1684
32.13	6.17005
32.14	6.1911
32.15	6.18617
32.16	6.15228
32.17	6.09932
32.18	6.13649
32.19	6.19636
32.2	6.19603
32.21	6.13583
32.22	6.13287
32.23	6.13189
32.24	6.18156
32.25	6.18353
32.26	6.13452
32.27	6.17169
32.28	6.15985
32.29	6.14834
32.3	6.18847
32.31	6.14044
32.32	6.11281
32.33	6.18419
32.34	6.14899
32.35	6.13222
32.36	6.13452
32.37	6.15064
32.38	6.17432
32.39	6.15426
32.4	6.14044
32.41	6.17399
32.42	6.14866
32.43	6.21182
32.44	6.21084
32.45	6.17301
32.46	6.16577
32.47	6.17531
32.48	6.10985
32.49	6.1082
32.5	6.20459
32.51	6.25656
32.52	6.13353
32.53	6.1786
32.54	6.22005
32.55	6.18419
32.56	6.1809
32.57	6.1809
32.58	6.13386
32.59	6.15886
32.6	6.1559
32.61	6.19899
32.62	6.20163
32.63	6.17334
32.64	6.1911
32.65	6.1809
32.66	6.16018
32.67	6.16906
32.68	6.19077
32.69	6.16939
32.7	6.1411
32.71	6.19011
32.72	6.17268
32.73	6.14044
32.74	6.16906
32.75	6.17992
32.76	6.15097
32.77	6.15952
32.78	6.20459
32.79	6.14208
32.8	6.16577
32.81	6.17597
32.82	6.12103
32.83	6.17959
32.84	6.16018
32.85	6.20952
32.86	6.20524
32.87	6.1809
32.88	6.18551
32.89	6.1911
32.9	6.17926
32.91	6.14702
32.92	6.17794
32.93	6.19044
32.94	6.1457
32.95	6.18057
32.96	6.16018
32.97	6.17432
32.98	6.17597
32.99	6.15689
33	6.16676
33.01	6.15426
33.02	6.19439
33.03	6.1911
33.04	6.20426
33.05	6.18945
33.06	6.15886
33.07	6.14537
33.08	6.13353
33.09	6.13287
33.1	6.18156
33.11	6.19735
33.12	6.1661
33.13	6.14801
33.14	6.17597
33.15	6.15952
33.16	6.17103
33.17	6.18189
33.18	6.17169
33.19	6.18945
33.2	6.14899
33.21	6.1684
33.22	6.21643
33.23	6.19242
33.24	6.15557
33.25	6.15689
33.26	6.1661
33.27	6.19636
33.28	6.18485
33.29	6.15162
33.3	6.18222
33.31	6.13222
33.32	6.12366
33.33	6.1911
33.34	6.1832
33.35	6.17959
33.36	6.16906
33.37	6.17761
33.38	6.19307
33.39	6.18485
33.4	6.1786
33.41	6.17564
33.42	6.13912
33.43	6.15886
33.44	6.17202
33.45	6.20261
33.46	6.1832
33.47	6.16676
33.48	6.14537
33.49	6.13057
33.5	6.18551
33.51	6.17465
33.52	6.14998
33.53	6.12597
33.54	6.10787
33.55	6.18617
33.56	6.16116
33.57	6.16149
33.58	6.14801
33.59	6.16084
33.6	6.18024
33.61	6.12301
33.62	6.1457
33.63	6.15787
33.64	6.19932
33.65	6.2286
33.66	6.18649
33.67	6.18649
33.68	6.16676
33.69	6.13847
33.7	6.11051
33.71	6.14176
33.72	6.1513
33.73	6.19176
33.74	6.22794
33.75	6.18452
33.76	6.14373
33.77	6.19669
33.78	6.14011
33.79	6.18222
33.8	6.21413
33.81	6.18386
33.82	6.15985
33.83	6.14636
33.84	6.14801
33.85	6.17268
33.86	6.17893
33.87	6.16445
33.88	6.1309
33.89	6.13485
33.9	6.16873
33.91	6.1661
33.92	6.16511
33.93	6.15459
33.94	6.18419
33.95	6.15985
33.96	6.15985
33.97	6.1661
33.98	6.13781
33.99	6.18978
34	6.20557
34.01	6.16248
34.02	6.16314
34.03	6.15919
34.04	6.17597
34.05	6.21117
34.06	6.16643
34.07	6.16084
34.08	6.17399
34.09	6.19439
34.1	6.16347
34.11	6.16149
34.12	6.19406
34.13	6.16347
34.14	6.1536
34.15	6.1888
34.16	6.17038
34.17	6.1559
34.18	6.16709
34.19	6.18551
34.2	6.12235
34.21	6.1434
34.22	6.16544
34.23	6.16413
34.24	6.18518
34.25	6.15722
34.26	6.1888
34.27	6.2059
34.28	6.20426
34.29	6.19472
34.3	6.15195
34.31	6.13682
34.32	6.12004
34.33	6.14176
34.34	6.12597
34.35	6.14176
34.36	6.1536
34.37	6.19899
34.38	6.15327
34.39	6.14735
34.4	6.14241
34.41	6.19538
34.42	6.13551
34.43	6.1809
34.44	6.20261
34.45	6.17597
34.46	6.19801
34.47	6.15524
34.48	6.16445
34.49	6.1888
34.5	6.14932
34.51	6.19011
34.52	6.18386
34.53	6.15327
34.54	6.15656
34.55	6.15886
34.56	6.16084
34.57	6.13781
34.58	6.18584
34.59	6.11215
34.6	6.18584
34.61	6.20821
34.62	6.21248
34.63	6.14241
34.64	6.19011
34.65	6.20426
34.66	6.18847
34.67	6.14406
34.68	6.16314
34.69	6.2138
34.7	6.22301
34.71	6.17827
34.72	6.18978
34.73	6.16676
34.74	6.19735
34.75	6.18617
34.76	6.15886
34.77	6.15294
34.78	6.14801
34.79	6.17169
34.8	6.13945
34.81	6.16972
34.82	6.18485
34.83	6.21281
34.84	6.17038
34.85	6.1434
34.86	6.19538
34.87	6.16709
34.88	6.15755
34.89	6.15327
34.9	6.17005
34.91	6.16676
34.92	6.15952
34.93	6.19998
34.94	6.17597
34.95	6.15031
34.96	6.15294
34.97	6.19307
34.98	6.1763
34.99	6.23617
35	6.18748
35.01	6.17268
35.02	6.14834
35.03	6.17728
35.04	6.1286
35.05	6.12958
35.06	6.14406
35.07	6.15985
35.08	6.17038
35.09	6.13616
35.1	6.12695
35.11	6.18748
35.12	6.11643
35.13	6.13255
35.14	6.12399
35.15	6.13583
35.16	6.18814
35.17	6.21676
35.18	6.11544
35.19	6.16511
35.2	6.13781
35.21	6.18978
35.22	6.15755
35.23	6.17334
35.24	6.19735
35.25	6.18617
35.26	6.16741
35.27	6.14176
35.28	6.18353
35.29	6.24209
35.3	6.15195
35.31	6.1411
35.32	6.1684
35.33	6.15195
35.34	6.13781
35.35	6.13583
35.36	6.16544
35.37	6.14274
35.38	6.1457
35.39	6.15524
35.4	6.11708
35.41	6.16149
35.42	6.18781
35.43	6.13222
35.44	6.18551
35.45	6.16577
35.46	6.17564
35.47	6.1332
35.48	6.14439
35.49	6.20755
35.5	6.19274
35.51	6.17038
35.52	6.13419
35.53	6.18057
35.54	6.14965
35.55	6.16511
35.56	6.20163
35.57	6.21709
35.58	6.20163
35.59	6.1763
35.6	6.1513
35.61	6.21051
35.62	6.15689
35.63	6.14472
35.64	6.15689
35.65	6.1582
35.66	6.13682
35.67	6.15031
35.68	6.15755
35.69	6.18353
35.7	6.2036
35.71	6.18814
35.72	6.13847
35.73	6.19538
35.74	6.12202
35.75	6.15393
35.76	6.1832
35.77	6.12761
35.78	6.16314
35.79	6.15722
35.8	6.13057
35.81	6.16182
35.82	6.19636
35.83	6.16084
35.84	6.13781
35.85	6.16051
35.86	6.19965
35.87	6.11314
35.88	6.18222
35.89	6.17103
35.9	6.15294
35.91	6.20952
35.92	6.16281
35.93	6.18353
35.94	6.17399
35.95	6.17531
35.96	6.17761
35.97	6.16347
35.98	6.12827
35.99	6.15162
36	6.16774
36.01	6.17399
36.02	6.18649
36.03	6.16051
36.04	6.11544
36.05	6.14768
36.06	6.13682
36.07	6.14406
36.08	6.15524
36.09	6.15722
36.1	6.17301
36.11	6.18518
36.12	6.19801
36.13	6.16511
36.14	6.16906
36.15	6.17531
36.16	6.15656
36.17	6.18419
36.18	6.16182
36.19	6.15393
36.2	6.14768
36.21	6.17169
36.22	6.15228
36.23	6.15426
36.24	6.16544
36.25	6.17663
36.26	6.20459
36.27	6.18649
36.28	6.1684
36.29	6.15261
36.3	6.1809
36.31	6.23979
36.32	6.22038
36.33	6.18386
36.34	6.15393
36.35	6.1457
36.36	6.17005
36.37	6.18288
36.38	6.17005
36.39	6.14044
36.4	6.17531
36.41	6.15524
36.42	6.17366
36.43	6.17103
36.44	6.16051
36.45	6.18617
36.46	6.12037
36.47	6.15393
36.48	6.19636
36.49	6.1161
36.5	6.11544
36.51	6.14307
36.52	6.14932
36.53	6.16709
36.54	6.16972
36.55	6.12465
36.56	6.1763
36.57	6.13715
36.58	6.19143
36.59	6.14603
36.6	6.11774
36.61	6.14044
36.62	6.16939
36.63	6.15162
36.64	6.11807
36.65	6.18386
36.66	6.1388
36.67	6.14307
36.68	6.15853
36.69	6.14702
36.7	6.11939
36.71	6.14702
36.72	6.14011
36.73	6.20492
36.74	6.1059
36.75	6.14834
36.76	6.15459
36.77	6.1934
36.78	6.14636
36.79	6.14143
36.8	6.1582
36.81	6.22498
36.82	6.20294
36.83	6.18682
36.84	6.17268
36.85	6.17268
36.86	6.15722
36.87	6.18288
36.88	6.14834
36.89	6.18255
36.9	6.15524
36.91	6.15656
36.92	6.14472
36.93	6.15294
36.94	6.20788
36.95	6.18945
36.96	6.1536
36.97	6.19406
36.98	6.19669
36.99	6.15195
37	6.12235
37.01	6.1434
37.02	6.14735
37.03	6.14208
37.04	6.14011
37.05	6.1707
37.06	6.1707
37.07	6.1911
37.08	6.19768
37.09	6.15787
37.1	6.10689
37.11	6.15031
37.12	6.13649
37.13	6.13847
37.14	6.16248
37.15	6.14505
37.16	6.14866
37.17	6.12235
37.18	6.10393
37.19	6.16084
37.2	6.14439
37.21	6.13945
37.22	6.19077
37.23	6.1388
37.24	6.19472
37.25	6.16577
37.26	6.14011
37.27	6.15787
37.28	6.1661
37.29	6.17564
37.3	6.14505
37.31	6.1036
37.32	6.12498
37.33	6.17038
37.34	6.17202
37.35	6.17564
37.36	6.15491
37.37	6.1434
37.38	6.1638
37.39	6.17926
37.4	6.16774
37.41	6.22301
37.42	6.18485
37.43	6.17597
37.44	6.14636
37.45	6.13518
37.46	6.18353
37.47	6.17597
37.48	6.11972
37.49	6.13945
37.5	6.16544
37.51	6.14866
37.52	6.13912
37.53	6.09472
37.54	6.15985
37.55	6.15162
37.56	6.17564
37.57	6.19998
37.58	6.17465
37.59	6.19011
37.6	6.14274
37.61	6.10656
37.62	6.16116
37.63	6.15393
37.64	6.15261
37.65	6.15228
37.66	6.16248
37.67	6.15755
37.68	6.16445
37.69	6.18584
37.7	6.15656
37.71	6.11708
37.72	6.17334
37.73	6.16314
37.74	6.19209
37.75	6.15228
37.76	6.17038
37.77	6.19932
37.78	6.15886
37.79	6.14603
37.8	6.18781
37.81	6.1638
37.82	6.14866
37.83	6.15623
37.84	6.17597
37.85	6.19932
37.86	6.16807
37.87	6.10327
37.88	6.17992
37.89	6.1559
37.9	6.16445
37.91	6.16248
37.92	6.2161
37.93	6.16774
37.94	6.11412
37.95	6.1582
37.96	6.15689
37.97	6.15722
37.98	6.13419
37.99	6.12893
38	6.1559
38.01	6.16281
38.02	6.15853
38.03	6.19077
38.04	6.17399
38.05	6.11774
38.06	6.12432
38.07	6.15656
38.08	6.14768
38.09	6.16741
38.1	6.17268
38.11	6.18123
38.12	6.11643
38.13	6.09241
38.14	6.12268
38.15	6.19143
38.16	6.18024
38.17	6.15459
38.18	6.13551
38.19	6.13748
38.2	6.15491
38.21	6.16676
38.22	6.11248
38.23	6.11873
38.24	6.14965
38.25	6.13748
38.26	6.17038
38.27	6.17103
38.28	6.14735
38.29	6.11741
38.3	6.1207
38.31	6.20689
38.32	6.16018
38.33	6.14439
38.34	6.15952
38.35	6.15524
38.36	6.15228
38.37	6.14406
38.38	6.08123
38.39	6.11741
38.4	6.12301
38.41	6.08814
38.42	6.13485
38.43	6.17268
38.44	6.13682
38.45	6.12399
38.46	6.14801
38.47	6.17202
38.48	6.19505
38.49	6.13518
38.5	6.14603
38.51	6.15524
38.52	6.15722
38.53	6.12465
38.54	6.1559
38.55	6.14274
38.56	6.17695
38.57	6.14011
38.58	6.15426
38.59	6.17268
38.6	6.1832
38.61	6.11939
38.62	6.15031
38.63	6.15524
38.64	6.10985
38.65	6.18551
38.66	6.16116
38.67	6.1786
38.68	6.16281
38.69	6.13156
38.7	6.15064
38.71	6.1707
38.72	6.14603
38.73	6.21314
38.74	6.17399
38.75	6.17399
38.76	6.15195
38.77	6.1559
38.78	6.16051
38.79	6.15689
38.8	6.14505
38.81	6.14636
38.82	6.10952
38.83	6.19373
38.84	6.20097
38.85	6.19176
38.86	6.15853
38.87	6.16051
38.88	6.15722
38.89	6.11906
38.9	6.14241
38.91	6.17399
38.92	6.14537
38.93	6.11281
38.94	6.15426
38.95	6.13814
38.96	6.14603
38.97	6.16084
38.98	6.12366
38.99	6.1309
39	6.17301
39.01	6.13222
39.02	6.13287
39.03	6.14702
39.04	6.20327
39.05	6.08814
39.06	6.08945
39.07	6.12235
39.08	6.12827
39.09	6.14801
39.1	6.10491
39.11	6.13682
39.12	6.17564
39.13	6.12958
39.14	6.13781
39.15	6.13682
39.16	6.12399
39.17	6.16511
39.18	6.17992
39.19	6.13255
39.2	6.14208
39.21	6.17169
39.22	6.14143
39.23	6.19899
39.24	6.16774
39.25	6.12728
39.26	6.16939
39.27	6.13485
39.28	6.15031
39.29	6.14702
39.3	6.16182
39.31	6.16709
39.32	6.14208
39.33	6.17465
39.34	6.16018
39.35	6.12794
39.36	6.19998
39.37	6.16149
39.38	6.15952
39.39	6.22334
39.4	6.17893
39.41	6.11018
39.42	6.19274
39.43	6.18814
39.44	6.17202
39.45	6.13781
39.46	6.12366
39.47	6.11939
39.48	6.12169
39.49	6.1638
39.5	6.12958
39.51	6.12827
39.52	6.11972
39.53	6.1832
39.54	6.1707
39.55	6.11347
39.56	6.13353
39.57	6.18682
39.58	6.15985
39.59	6.13189
39.6	6.16116
39.61	6.11807
39.62	6.14768
39.63	6.17103
39.64	6.1263
39.65	6.16873
39.66	6.19867
39.67	6.1582
39.68	6.16643
39.69	6.12794
39.7	6.17432
39.71	6.14537
39.72	6.14241
39.73	6.14439
39.74	6.13748
39.75	6.1309
39.76	6.15426
39.77	6.16281
39.78	6.20327
39.79	6.14866
39.8	6.17005
39.81	6.16116
39.82	6.14176
39.83	6.14208
39.84	6.12728
39.85	6.17399
39.86	6.11708
39.87	6.13024
39.88	6.17366
39.89	6.17432
39.9	6.13649
39.91	6.15426
39.92	6.1263
39.93	6.17235
39.94	6.13945
39.95	6.11939
39.96	6.13386
39.97	6.17761
39.98	6.12958
39.99	6.12597
40	6.14669
40.01	6.16807
40.02	6.14932
40.03	6.1263
40.04	6.13945
40.05	6.10886
40.06	6.11083
40.07	6.06346
40.08	6.16314
40.09	6.18682
40.1	6.15327
40.11	6.14143
40.12	6.11807
40.13	6.14208
40.14	6.14176
40.15	6.15459
40.16	6.12761
40.17	6.15195
40.18	6.20163
40.19	6.12893
40.2	6.1582
40.21	6.17893
40.22	6.17235
40.23	6.14735
40.24	6.12564
40.25	6.10425
40.26	6.14998
40.27	6.14537
40.28	6.12366
40.29	6.18715
40.3	6.14965
40.31	6.14801
40.32	6.14044
40.33	6.10097
40.34	6.09833
40.35	6.1684
40.36	6.13024
40.37	6.14834
40.38	6.15064
40.39	6.098
40.4	6.11939
40.41	6.17827
40.42	6.16248
40.43	6.16643
40.44	6.13255
40.45	6.13583
40.46	6.1809
40.47	6.20492
40.48	6.16018
40.49	6.14603
40.5	6.16478
40.51	6.14801
40.52	6.15228
40.53	6.15623
40.54	6.11051
40.55	6.14143
40.56	6.14537
40.57	6.14208
40.58	6.14669
40.59	6.17926
40.6	6.10393
40.61	6.16544
40.62	6.15261
40.63	6.12728
40.64	6.14899
40.65	6.1559
40.66	6.10195
40.67	6.16413
40.68	6.14669
40.69	6.14998
40.7	6.16281
40.71	6.17366
40.72	6.13781
40.73	6.14406
40.74	6.17169
40.75	6.12037
40.76	6.15195
40.77	6.17761
40.78	6.19965
40.79	6.17663
40.8	6.16741
40.81	6.15031
40.82	6.1207
40.83	6.18682
40.84	6.14965
40.85	6.2013
40.86	6.18584
40.87	6.12728
40.88	6.15162
40.89	6.14735
40.9	6.13518
40.91	6.14735
40.92	6.15524
40.93	6.15162
40.94	6.12827
40.95	6.19899
40.96	6.12366
40.97	6.16906
40.98	6.16774
40.99	6.15787
41	6.12169
41.01	6.15689
41.02	6.1707
41.03	6.17103
41.04	6.13419
41.05	6.12794
41.06	6.14176
41.07	6.15031
41.08	6.16972
41.09	6.15623
41.1	6.12399
41.11	6.13452
41.12	6.10294
41.13	6.12728
41.14	6.1286
41.15	6.15459
41.16	6.1707
41.17	6.10458
41.18	6.16413
41.19	6.17366
41.2	6.16314
41.21	6.1786
41.22	6.16774
41.23	6.16643
41.24	6.15557
41.25	6.09537
41.26	6.1184
41.27	6.13024
41.28	6.12597
41.29	6.1161
41.3	6.12004
41.31	6.15426
41.32	6.11708
41.33	6.09669
41.34	6.15853
41.35	6.10031
41.36	6.13353
41.37	6.16807
41.38	6.12695
41.39	6.17663
41.4	6.14735
41.41	6.10787
41.42	6.13649
41.43	6.11379
41.44	6.12662
41.45	6.13649
41.46	6.1184
41.47	6.13583
41.48	6.16248
41.49	6.15491
41.5	6.14077
41.51	6.0911
41.52	6.14307
41.53	6.11708
41.54	6.12893
41.55	6.18156
41.56	6.19176
41.57	6.13847
41.58	6.10425
41.59	6.11445
41.6	6.13551
41.61	6.16314
41.62	6.17992
41.63	6.10853
41.64	6.1332
41.65	6.12958
41.66	6.16807
41.67	6.22498
41.68	6.19867
41.69	6.1888
41.7	6.13419
41.71	6.1536
41.72	6.1411
41.73	6.08847
41.74	6.15294
41.75	6.13978
41.76	6.1559
41.77	6.11018
41.78	6.08156
41.79	6.11314
41.8	6.1059
41.81	6.15426
41.82	6.16544
41.83	6.15919
41.84	6.14011
41.85	6.15787
41.86	6.12564
41.87	6.16116
41.88	6.12037
41.89	6.13583
41.9	6.14373
41.91	6.11873
41.92	6.17959
41.93	6.10425
41.94	6.1457
41.95	6.15656
41.96	6.15491
41.97	6.18814
41.98	6.16709
41.99	6.1559
42	6.16215
42.01	6.11544
42.02	6.14834
42.03	6.13485
42.04	6.12268
42.05	6.17498
42.06	6.1207
42.07	6.14669
42.08	6.12728
42.09	6.14932
42.1	6.18222
42.11	6.20557
42.12	6.1184
42.13	6.13189
42.14	6.1536
42.15	6.17038
42.16	6.14735
42.17	6.13978
42.18	6.08912
42.19	6.12794
42.2	6.1332
42.21	6.20492
42.22	6.12268
42.23	6.13123
42.24	6.10327
42.25	6.1082
42.26	6.11379
42.27	6.12926
42.28	6.12202
42.29	6.13419
42.3	6.1263
42.31	6.1082
42.32	6.06675
42.33	6.12926
42.34	6.11051
42.35	6.11708
42.36	6.17695
42.37	6.12893
42.38	6.12893
42.39	6.14636
42.4	6.1536
42.41	6.13123
42.42	6.10195
42.43	6.10952
42.44	6.15261
42.45	6.16939
42.46	6.06412
42.47	6.09833
42.48	6.1536
42.49	6.13222
42.5	6.06971
42.51	6.15294
42.52	6.19209
42.53	6.11643
42.54	6.12662
42.55	6.18913
42.56	6.16774
42.57	6.16149
42.58	6.15787
42.59	6.10919
42.6	6.11676
42.61	6.06873
42.62	6.10524
42.63	6.18024
42.64	6.14439
42.65	6.14505
42.66	6.1207
42.67	6.1536
42.68	6.15031
42.69	6.10886
42.7	6.17038
42.71	6.14472
42.72	6.13551
42.73	6.19044
42.74	6.14735
42.75	6.16347
42.76	6.08221
42.77	6.14702
42.78	6.15755
42.79	6.17136
42.8	6.15722
42.81	6.14932
42.82	6.15393
42.83	6.15162
42.84	6.15985
42.85	6.13814
42.86	6.09833
42.87	6.1888
42.88	6.12794
42.89	6.10722
42.9	6.12268
42.91	6.17136
42.92	6.15722
42.93	6.12103
42.94	6.1263
42.95	6.13583
42.96	6.16676
42.97	6.14866
42.98	6.17005
42.99	6.1638
43	6.14932
43.01	6.16347
43.02	6.10458
43.03	6.11314
43.04	6.13912
43.05	6.14077
43.06	6.18814
43.07	6.10689
43.08	6.15755
43.09	6.16939
43.1	6.17235
43.11	6.16248
43.12	6.15524
43.13	6.14735
43.14	6.0957
43.15	6.12366
43.16	6.12301
43.17	6.09866
43.18	6.16413
43.19	6.14537
43.2	6.10261
43.21	6.12301
43.22	6.15755
43.23	6.11379
43.24	6.11379
43.25	6.20196
43.26	6.16347
43.27	6.14307
43.28	6.13847
43.29	6.11379
43.3	6.11478
43.31	6.09537
43.32	6.12136
43.33	6.1184
43.34	6.15787
43.35	6.14899
43.36	6.14537
43.37	6.16774
43.38	6.12827
43.39	6.17827
43.4	6.13814
43.41	6.11379
43.42	6.17169
43.43	6.11478
43.44	6.12333
43.45	6.14899
43.46	6.17992
43.47	6.10985
43.48	6.16873
43.49	6.13189
43.5	6.12695
43.51	6.14406
43.52	6.16413
43.53	6.17235
43.54	6.11116
43.55	6.14307
43.56	6.13748
43.57	6.12564
43.58	6.12136
43.59	6.15755
43.6	6.16248
43.61	6.16741
43.62	6.18452
43.63	6.12761
43.64	6.12564
43.65	6.08814
43.66	6.1809
43.67	6.15722
43.68	6.11347
43.69	6.14505
43.7	6.13024
43.71	6.16807
43.72	6.12893
43.73	6.12136
43.74	6.15228
43.75	6.12531
43.76	6.1684
43.77	6.14143
43.78	6.14702
43.79	6.16116
43.8	6.17136
43.81	6.15261
43.82	6.0911
43.83	6.13945
43.84	6.13452
43.85	6.11774
43.86	6.14176
43.87	6.13715
43.88	6.13024
43.89	6.14669
43.9	6.14866
43.91	6.15755
43.92	6.1513
43.93	6.15064
43.94	6.1434
43.95	6.12004
43.96	6.13518
43.97	6.14636
43.98	6.12333
43.99	6.12597
44	6.14965
44.01	6.09373
44.02	6.11445
44.03	6.16051
44.04	6.12597
44.05	6.14011
44.06	6.10952
44.07	6.12366
44.08	6.14801
44.09	6.17728
44.1	6.15064
44.11	6.07136
44.12	6.14307
44.13	6.1559
44.14	6.14472
44.15	6.15689
44.16	6.15689
44.17	6.14241
44.18	6.11544
44.19	6.16939
44.2	6.19702
44.21	6.1388
44.22	6.11676
44.23	6.14208
44.24	6.15557
44.25	6.11577
44.26	6.14636
44.27	6.20097
44.28	6.1411
44.29	6.16972
44.3	6.13386
44.31	6.1434
44.32	6.14373
44.33	6.08353
44.34	6.08386
44.35	6.11544
44.36	6.1457
44.37	6.15853
44.38	6.14603
44.39	6.15722
44.4	6.14044
44.41	6.098
44.42	6.13156
44.43	6.14866
44.44	6.10524
44.45	6.1684
44.46	6.15491
44.47	6.12268
44.48	6.13419
44.49	6.14702
44.5	6.10162
44.51	6.09044
44.52	6.17202
44.53	6.17893
44.54	6.15722
44.55	6.12893
44.56	6.10097
44.57	6.12136
44.58	6.11149
44.59	6.19373
44.6	6.15722
44.61	6.13452
44.62	6.16182
44.63	6.13057
44.64	6.12037
44.65	6.11807
44.66	6.10722
44.67	6.12301
44.68	6.15689
44.69	6.19768
44.7	6.09965
44.71	6.12991
44.72	6.15426
44.73	6.16248
44.74	6.1332
44.75	6.14899
44.76	6.10228
44.77	6.15853
44.78	6.15097
44.79	6.14472
44.8	6.14143
44.81	6.17301
44.82	6.1161
44.83	6.14537
44.84	6.12926
44.85	6.12531
44.86	6.12333
44.87	6.15064
44.88	6.12399
44.89	6.12695
44.9	6.13419
44.91	6.14176
44.92	6.11248
44.93	6.09537
44.94	6.14834
44.95	6.09143
44.96	6.06906
44.97	6.08287
44.98	6.0957
44.99	6.13419
45	6.15524
45.01	6.11116
45.02	6.15952
45.03	6.09735
45.04	6.12301
45.05	6.10623
45.06	6.10919
45.07	6.1661
45.08	6.11807
45.09	6.09504
45.1	6.07629
45.11	6.15689
45.12	6.10294
45.13	6.09702
45.14	6.11906
45.15	6.15524
45.16	6.13057
45.17	6.17663
45.18	6.15393
45.19	6.11379
45.2	6.12728
45.21	6.11083
45.22	6.13518
45.23	6.15064
45.24	6.10886
45.25	6.10195
45.26	6.14011
45.27	6.08254
45.28	6.10491
45.29	6.10524
45.3	6.13419
45.31	6.10327
45.32	6.08879
45.33	6.15689
45.34	6.13287
45.35	6.13419
45.36	6.12037
45.37	6.12531
45.38	6.10623
45.39	6.12597
45.4	6.0911
45.41	6.14044
45.42	6.10491
45.43	6.16511
45.44	6.13945
45.45	6.13287
45.46	6.13748
45.47	6.10557
45.48	6.098
45.49	6.11051
45.5	6.12597
45.51	6.12301
45.52	6.12926
45.53	6.10656
45.54	6.10425
45.55	6.11445
45.56	6.09702
45.57	6.14077
45.58	6.13123
45.59	6.13781
45.6	6.12268
45.61	6.10754
45.62	6.12333
45.63	6.1513
45.64	6.11577
45.65	6.13814
45.66	6.15722
45.67	6.13353
45.68	6.09669
45.69	6.11281
45.7	6.09472
45.71	6.09932
45.72	6.14241
45.73	6.17992
45.74	6.10557
45.75	6.13386
45.76	6.11544
45.77	6.13222
45.78	6.11643
45.79	6.14537
45.8	6.10097
45.81	6.0855
45.82	6.09899
45.83	6.12169
45.84	6.11544
45.85	6.13912
45.86	6.08715
45.87	6.14768
45.88	6.12761
45.89	6.12136
45.9	6.14768
45.91	6.13748
45.92	6.07202
45.93	6.06873
45.94	6.07531
45.95	6.14965
45.96	6.12564
45.97	6.13583
45.98	6.14011
45.99	6.10425
46	6.09603
46.01	6.11182
46.02	6.14373
46.03	6.12662
46.04	6.12926
46.05	6.06445
46.06	6.06741
46.07	6.0832
46.08	6.11577
46.09	6.11412
46.1	6.12136
46.11	6.11379
46.12	6.12169
46.13	6.13781
46.14	6.14702
46.15	6.12728
46.16	6.12827
46.17	6.10557
46.18	6.11774
46.19	6.13452
46.2	6.13057
46.21	6.11215
46.22	6.10294
46.23	6.12498
46.24	6.16939
46.25	6.15755
46.26	6.16215
46.27	6.10064
46.28	6.08616
46.29	6.14044
46.3	6.1207
46.31	6.0832
46.32	6.11972
46.33	6.15853
46.34	6.16807
46.35	6.17695
46.36	6.14077
46.37	6.17399
46.38	6.15689
46.39	6.09537
46.4	6.13255
46.41	6.07498
46.42	6.08814
46.43	6.08057
46.44	6.09768
46.45	6.10985
46.46	6.10853
46.47	6.12202
46.48	6.10689
46.49	6.08419
46.5	6.11972
46.51	6.11412
46.52	6.15228
46.53	6.16413
46.54	6.12333
46.55	6.08715
46.56	6.07695
46.57	6.15064
46.58	6.14077
46.59	6.09965
46.6	6.14208
46.61	6.12991
46.62	6.12991
46.63	6.13518
46.64	6.16544
46.65	6.18584
46.66	6.17695
46.67	6.18682
46.68	6.1411
46.69	6.12366
46.7	6.19242
46.71	6.13485
46.72	6.09965
46.73	6.08518
46.74	6.11478
46.75	6.08912
46.76	6.06675
46.77	6.10952
46.78	6.09998
46.79	6.16676
46.8	6.08419
46.81	6.10294
46.82	6.10261
46.83	6.14143
46.84	6.16577
46.85	6.11215
46.86	6.0809
46.87	6.06939
46.88	6.11051
46.89	6.16709
46.9	6.09208
46.91	6.12761
46.92	6.1286
46.93	6.13024
46.94	6.0707
46.95	6.13748
46.96	6.12004
46.97	6.15064
46.98	6.12432
46.99	6.08583
47	6.07366
47.01	6.12202
47.02	6.11906
47.03	6.11478
47.04	6.10623
47.05	6.12333
47.06	6.1309
47.07	6.11511
47.08	6.10491
47.09	6.10853
47.1	6.11149
47.11	6.11972
47.12	6.17334
47.13	6.10557
47.14	6.12004
47.15	6.11643
47.16	6.12728
47.17	6.15853
47.18	6.13551
47.19	6.13255
47.2	6.11314
47.21	6.12333
47.22	6.10952
47.23	6.08781
47.24	6.11182
47.25	6.11807
47.26	6.10722
47.27	6.09603
47.28	6.08189
47.29	6.0957
47.3	6.11412
47.31	6.06511
47.32	6.0559
47.33	6.1161
47.34	6.13452
47.35	6.17728
47.36	6.08287
47.37	6.15426
47.38	6.14603
47.39	6.17597
47.4	6.16709
47.41	6.14208
47.42	6.12564
47.43	6.16149
47.44	6.14077
47.45	6.11939
47.46	6.14208
47.47	6.1684
47.48	6.14472
47.49	6.1082
47.5	6.11511
47.51	6.12498
47.52	6.15294
47.53	6.10064
47.54	6.11643
47.55	6.09866
47.56	6.14702
47.57	6.07629
47.58	6.12268
47.59	6.14143
47.6	6.0661
47.61	6.13287
47.62	6.12333
47.63	6.11544
47.64	6.14636
47.65	6.11018
47.66	6.14834
47.67	6.14735
47.68	6.0809
47.69	6.1059
47.7	6.11412
47.71	6.10524
47.72	6.13287
47.73	6.09669
47.74	6.1207
47.75	6.1513
47.76	6.14537
47.77	6.11972
47.78	6.11347
47.79	6.11248
47.8	6.13024
47.81	6.05491
47.82	6.11511
47.83	6.13419
47.84	6.12958
47.85	6.12432
47.86	6.10491
47.87	6.06906
47.88	6.08978
47.89	6.15689
47.9	6.11906
47.91	6.09866
47.92	6.11544
47.93	6.11149
47.94	6.16116
47.95	6.12926
47.96	6.14472
47.97	6.15097
47.98	6.15787
47.99	6.11807
48	6.06215
48.01	6.06906
48.02	6.12301
48.03	6.11281
48.04	6.12893
48.05	6.11544
48.06	6.12103
48.07	6.12991
48.08	6.10985
48.09	6.11149
48.1	6.11643
48.11	6.12465
48.12	6.12399
48.13	6.14603
48.14	6.12991
48.15	6.11149
48.16	6.13847
48.17	6.12366
48.18	6.08748
48.19	6.07827
48.2	6.0957
48.21	6.11281
48.22	6.09175
48.23	6.10886
48.24	6.11544
48.25	6.14176
48.26	6.16939
48.27	6.1388
48.28	6.12794
48.29	6.15327
48.3	6.15097
48.31	6.09669
48.32	6.09472
48.33	6.13551
48.34	6.08583
48.35	6.08912
48.36	6.14702
48.37	6.09899
48.38	6.07629
48.39	6.12465
48.4	6.15985
48.41	6.10689
48.42	6.10656
48.43	6.10458
48.44	6.14702
48.45	6.08649
48.46	6.08254
48.47	6.13748
48.48	6.13485
48.49	6.12235
48.5	6.09406
48.51	6.0684
48.52	6.10919
48.53	6.08879
48.54	6.11544
48.55	6.09932
48.56	6.12926
48.57	6.11182
48.58	6.09175
48.59	6.12432
48.6	6.10228
48.61	6.06182
48.62	6.10919
48.63	6.11248
48.64	6.1582
48.65	6.10064
48.66	6.14143
48.67	6.1161
48.68	6.11051
48.69	6.05623
48.7	6.08518
48.71	6.13814
48.72	6.15985
48.73	6.14866
48.74	6.13912
48.75	6.13287
48.76	6.1411
48.77	6.10425
48.78	6.07564
48.79	6.08814
48.8	6.11314
48.81	6.12695
48.82	6.12235
48.83	6.13123
48.84	6.10129
48.85	6.1309
48.86	6.14998
48.87	6.12893
48.88	6.12728
48.89	6.11906
48.9	6.16413
48.91	6.15787
48.92	6.11676
48.93	6.11939
48.94	6.10064
48.95	6.12991
48.96	6.09011
48.97	6.08452
48.98	6.09208
48.99	6.14735
49	6.09208
49.01	6.13255
49.02	6.1082
49.03	6.11412
49.04	6.13189
49.05	6.15228
49.06	6.1388
49.07	6.1638
49.08	6.07958
49.09	6.12794
49.1	6.15557
49.11	6.09274
49.12	6.10524
49.13	6.07169
49.14	6.10919
49.15	6.09373
49.16	6.11708
49.17	6.09307
49.18	6.09274
49.19	6.11708
49.2	6.08123
49.21	6.10261
49.22	6.08715
49.23	6.10656
49.24	6.13945
49.25	6.09702
49.26	6.11807
49.27	6.14406
49.28	6.12037
49.29	6.1161
49.3	6.07531
49.31	6.1286
49.32	6.10458
49.33	6.11643
49.34	6.10393
49.35	6.08583
49.36	6.10031
49.37	6.14965
49.38	6.10689
49.39	6.13649
49.4	6.1161
49.41	6.12761
49.42	6.1457
49.43	6.10228
49.44	6.1332
49.45	6.1388
49.46	6.09636
49.47	6.12827
49.48	6.08649
49.49	6.09472
49.5	6.13649
49.51	6.14044
49.52	6.13189
49.53	6.07662
49.54	6.16215
49.55	6.17103
49.56	6.1286
49.57	6.1388
49.58	6.14406
49.59	6.12004
49.6	6.12169
49.61	6.12301
49.62	6.09932
49.63	6.1388
49.64	6.08847
49.65	6.11873
49.66	6.18222
49.67	6.16676
49.68	6.14077
49.69	6.13485
49.7	6.11643
49.71	6.07596
49.72	6.10393
49.73	6.11643
49.74	6.12662
49.75	6.08748
49.76	6.08452
49.77	6.17202
49.78	6.1161
49.79	6.12399
49.8	6.12268
49.81	6.07202
49.82	6.08057
49.83	6.1434
49.84	6.11774
49.85	6.11248
49.86	6.13945
49.87	6.10919
49.88	6.13452
49.89	6.10393
49.9	6.1536
49.91	6.07498
49.92	6.11774
49.93	6.15031
49.94	6.12235
49.95	6.12926
49.96	6.16182
49.97	6.09143
49.98	6.05754
49.99	6.09866
50	6.11807
