"BIO-KINE ASCII FILE"
"_COMMENT"	"MOS-500 Spectrometer"
"_COMMENT"	"Kinetics measurement"
"_COMMENT"	"Y Unit : Volt,  X Unit : s"
"_COMMENT"	"Excitation wavelength : 380 nm"
"_COMMENT"	"Fentes bandwidth =  1 nm"
"_COMMENT"	"HV= 1000V"
"_COMMENT"	"Timebase  1 =  .01 s   5001 pts"
"_SFM"	"SFM-400 /S  Advanced mode"
"_SFM"	"Ratio : S1: 2.5, S2: 0, S3: 0, S4: 1"
"_SFM"	"Content : S1: , S2: , S3: , S4:"
"_SFM"	"Concentration : S1: , S2: , S3: , S4:"
"_SFM"	"Total volume : 209 µl  Flow : 3.5 mL/s"
"_SFM"	"Acquisition start :  10 ms before stop"
"_SFM"	"cuve=FC-15, s1=10 ml , s2=10 ml , s3=10 ml , s4=1.9 ml"
"_UNITX"	"s"
"_UNITY"	"Volt"
"_DELTAX"	0
"_DATA"
1e-300	2.92488
0.01	2.91238
0.02	2.95646
0.03	3.03179
0.04	3.07127
0.05	3.11929
0.06	3.1466
0.07	3.13015
0.08	3.17028
0.09	3.17785
0.1	3.18541
0.11	3.1841
0.12	3.19463
0.13	3.21963
0.14	3.18344
0.15	3.23575
0.16	3.19199
0.17	3.1841
0.18	3.18772
0.19	3.16765
0.2	3.25515
0.21	3.21996
0.22	3.18476
0.23	3.21634
0.24	3.23377
0.25	3.21436
0.26	3.22226
0.27	3.21206
0.28	3.19298
0.29	3.22489
0.3	3.2216
0.31	3.2239
0.32	3.22818
0.33	3.24364
0.34	3.25384
0.35	3.21436
0.36	3.21667
0.37	3.22917
0.38	3.25252
0.39	3.26568
0.4	3.22061
0.41	3.25614
0.42	3.22785
0.43	3.20976
0.44	3.22555
0.45	3.21371
0.46	3.20877
0.47	3.22423
0.48	3.22917
0.49	3.21502
0.5	3.22851
0.51	3.26305
0.52	3.20614
0.53	3.23213
0.54	3.21239
0.55	3.26371
0.56	3.25186
0.57	3.23476
0.58	3.22884
0.59	3.22818
0.6	3.23213
0.61	3.24825
0.62	3.22719
0.63	3.24298
0.64	3.24134
0.65	3.21831
0.66	3.21568
0.67	3.24167
0.68	3.22851
0.69	3.19068
0.7	3.2012
0.71	3.21765
0.72	3.2216
0.73	3.23015
0.74	3.24496
0.75	3.23081
0.76	3.2193
0.77	3.20318
0.78	3.2239
0.79	3.23509
0.8	3.22357
0.81	3.2318
0.82	3.21765
0.83	3.16337
0.84	3.19923
0.85	3.21831
0.86	3.21634
0.87	3.22423
0.88	3.24857
0.89	3.23739
0.9	3.2318
0.91	3.21667
0.92	3.23805
0.93	3.22686
0.94	3.19627
0.95	3.21206
0.96	3.1989
0.97	3.24496
0.98	3.22193
0.99	3.20351
1	3.19759
1.01	3.2012
1.02	3.19166
1.03	3.20844
1.04	3.21173
1.05	3.1887
1.06	3.21996
1.07	3.20285
1.08	3.21436
1.09	3.20285
1.1	3.16568
1.11	3.18574
1.12	3.22061
1.13	3.19956
1.14	3.19792
1.15	3.19265
1.16	3.19923
1.17	3.18903
1.18	3.1841
1.19	3.20976
1.2	3.19594
1.21	3.20153
1.22	3.21864
1.23	3.20515
1.24	3.16305
1.25	3.18541
1.26	3.21239
1.27	3.20745
1.28	3.18344
1.29	3.21107
1.3	3.17949
1.31	3.18476
1.32	3.20088
1.33	3.18969
1.34	3.21864
1.35	3.24397
1.36	3.18805
1.37	3.2068
1.38	3.20778
1.39	3.17324
1.4	3.19693
1.41	3.21107
1.42	3.21765
1.43	3.19166
1.44	3.19166
1.45	3.21009
1.46	3.17226
1.47	3.17291
1.48	3.19627
1.49	3.22259
1.5	3.2364
1.51	3.21305
1.52	3.19857
1.53	3.20153
1.54	3.21667
1.55	3.17423
1.56	3.17291
1.57	3.17061
1.58	3.20318
1.59	3.22456
1.6	3.16962
1.61	3.17489
1.62	3.1887
1.63	3.16897
1.64	3.16535
1.65	3.16864
1.66	3.1637
1.67	3.18805
1.68	3.18838
1.69	3.19331
1.7	3.16732
1.71	3.18114
1.72	3.15943
1.73	3.16305
1.74	3.17752
1.75	3.18081
1.76	3.20614
1.77	3.1818
1.78	3.21272
1.79	3.18838
1.8	3.21634
1.81	3.22884
1.82	3.1966
1.83	3.1989
1.84	3.19166
1.85	3.21272
1.86	3.19364
1.87	3.17752
1.88	3.1818
1.89	3.19627
1.9	3.19824
1.91	3.17555
1.92	3.18772
1.93	3.18509
1.94	3.18574
1.95	3.19265
1.96	3.19824
1.97	3.18213
1.98	3.20022
1.99	3.1887
2	3.17555
2.01	3.20055
2.02	3.19561
2.03	3.20515
2.04	3.18311
2.05	3.21107
2.06	3.20877
2.07	3.16666
2.08	3.18739
2.09	3.17752
2.1	3.18213
2.11	3.16634
2.12	3.19824
2.13	3.19594
2.14	3.16995
2.15	3.20318
2.16	3.16206
2.17	3.18574
2.18	3.18048
2.19	3.17028
2.2	3.19068
2.21	3.16239
2.22	3.17259
2.23	3.17226
2.24	3.20877
2.25	3.17785
2.26	3.18147
2.27	3.18574
2.28	3.19463
2.29	3.19166
2.3	3.18344
2.31	3.17949
2.32	3.1739
2.33	3.17291
2.34	3.17522
2.35	3.18969
2.36	3.15844
2.37	3.15055
2.38	3.15712
2.39	3.15515
2.4	3.19101
2.41	3.18541
2.42	3.19528
2.43	3.19134
2.44	3.1387
2.45	3.17818
2.46	3.16041
2.47	3.13607
2.48	3.18147
2.49	3.18509
2.5	3.17686
2.51	3.16206
2.52	3.15252
2.53	3.16962
2.54	3.18081
2.55	3.18772
2.56	3.16206
2.57	3.16831
2.58	3.19265
2.59	3.20055
2.6	3.17587
2.61	3.16568
2.62	3.20548
2.63	3.21831
2.64	3.21009
2.65	3.20055
2.66	3.15647
2.67	3.16008
2.68	3.16272
2.69	3.15614
2.7	3.16074
2.71	3.14462
2.72	3.17522
2.73	3.16601
2.74	3.18278
2.75	3.16206
2.76	3.15515
2.77	3.16535
2.78	3.16699
2.79	3.14133
2.8	3.14002
2.81	3.1466
2.82	3.14857
2.83	3.1568
2.84	3.16337
2.85	3.15252
2.86	3.16305
2.87	3.14429
2.88	3.12028
2.89	3.15351
2.9	3.16436
2.91	3.14824
2.92	3.14726
2.93	3.13541
2.94	3.16041
2.95	3.18772
2.96	3.17719
2.97	3.20417
2.98	3.15515
2.99	3.19792
3	3.1637
3.01	3.12127
3.02	3.16699
3.03	3.13969
3.04	3.14364
3.05	3.17818
3.06	3.16107
3.07	3.16403
3.08	3.15055
3.09	3.15778
3.1	3.15515
3.11	3.13476
3.12	3.13508
3.13	3.14627
3.14	3.17851
3.15	3.1568
3.16	3.14791
3.17	3.15482
3.18	3.16995
3.19	3.15712
3.2	3.17193
3.21	3.12916
3.22	3.14726
3.23	3.19134
3.24	3.19824
3.25	3.15712
3.26	3.13706
3.27	3.14791
3.28	3.14495
3.29	3.10745
3.3	3.15976
3.31	3.1637
3.32	3.14726
3.33	3.11962
3.34	3.14133
3.35	3.15285
3.36	3.15252
3.37	3.1387
3.38	3.16008
3.39	3.15318
3.4	3.15252
3.41	3.17357
3.42	3.15383
3.43	3.14331
3.44	3.14857
3.45	3.11929
3.46	3.1591
3.47	3.15252
3.48	3.15219
3.49	3.14364
3.5	3.16041
3.51	3.15219
3.52	3.13048
3.53	3.14693
3.54	3.1591
3.55	3.1591
3.56	3.1262
3.57	3.15976
3.58	3.14397
3.59	3.12489
3.6	3.13607
3.61	3.15976
3.62	3.12916
3.63	3.13179
3.64	3.14824
3.65	3.1512
3.66	3.13212
3.67	3.14594
3.68	3.13739
3.69	3.11074
3.7	3.14429
3.71	3.15449
3.72	3.1568
3.73	3.18278
3.74	3.12587
3.75	3.14002
3.76	3.16535
3.77	3.14002
3.78	3.14824
3.79	3.13969
3.8	3.1262
3.81	3.12061
3.82	3.1364
3.83	3.14495
3.84	3.15943
3.85	3.14791
3.86	3.13278
3.87	3.1568
3.88	3.11633
3.89	3.11041
3.9	3.10877
3.91	3.13706
3.92	3.12916
3.93	3.16502
3.94	3.14199
3.95	3.17522
3.96	3.1512
3.97	3.16206
3.98	3.13903
3.99	3.15943
4	3.12982
4.01	3.12719
4.02	3.15943
4.03	3.13804
4.04	3.14495
4.05	3.13278
4.06	3.12291
4.07	3.15877
4.08	3.13114
4.09	3.14035
4.1	3.13311
4.11	3.13212
4.12	3.17949
4.13	3.13903
4.14	3.14693
4.15	3.13476
4.16	3.13706
4.17	3.1285
4.18	3.11798
4.19	3.15877
4.2	3.15449
4.21	3.12127
4.22	3.10515
4.23	3.10548
4.24	3.11403
4.25	3.13673
4.26	3.1387
4.27	3.1466
4.28	3.13048
4.29	3.08804
4.3	3.09989
4.31	3.12061
4.32	3.11403
4.33	3.11765
4.34	3.11173
4.35	3.13048
4.36	3.13147
4.37	3.14035
4.38	3.14495
4.39	3.13081
4.4	3.11798
4.41	3.11041
4.42	3.11304
4.43	3.12785
4.44	3.12061
4.45	3.10943
4.46	3.14199
4.47	3.1568
4.48	3.14002
4.49	3.14462
4.5	3.14462
4.51	3.14758
4.52	3.10943
4.53	3.10614
4.54	3.1285
4.55	3.12653
4.56	3.17587
4.57	3.16502
4.58	3.09331
4.59	3.11239
4.6	3.10778
4.61	3.12258
4.62	3.13508
4.63	3.13476
4.64	3.15318
4.65	3.16535
4.66	3.12324
4.67	3.10679
4.68	3.09989
4.69	3.09989
4.7	3.09002
4.71	3.11995
4.72	3.1012
4.73	3.10515
4.74	3.1364
4.75	3.10877
4.76	3.10021
4.77	3.12489
4.78	3.12719
4.79	3.10745
4.8	3.05811
4.81	3.11008
4.82	3.12127
4.83	3.12423
4.84	3.13903
4.85	3.10811
4.86	3.14495
4.87	3.11995
4.88	3.15022
4.89	3.14166
4.9	3.12949
4.91	3.14331
4.92	3.11962
4.93	3.13706
4.94	3.10646
4.95	3.11798
4.96	3.12949
4.97	3.14495
4.98	3.09923
4.99	3.10186
5	3.12653
5.01	3.11666
5.02	3.10614
5.03	3.07752
5.04	3.11008
5.05	3.13114
5.06	3.15548
5.07	3.13114
5.08	3.13903
5.09	3.12949
5.1	3.09758
5.11	3.08475
5.12	3.09429
5.13	3.10318
5.14	3.1239
5.15	3.08739
5.16	3.1137
5.17	3.12291
5.18	3.11929
5.19	3.04988
5.2	3.07554
5.21	3.12291
5.22	3.09758
5.23	3.09528
5.24	3.11008
5.25	3.09692
5.26	3.0864
5.27	3.11699
5.28	3.10449
5.29	3.1489
5.3	3.13772
5.31	3.13804
5.32	3.13673
5.33	3.08212
5.34	3.1216
5.35	3.09857
5.36	3.0841
5.37	3.09331
5.38	3.06469
5.39	3.05383
5.4	3.11239
5.41	3.11765
5.42	3.15351
5.43	3.11502
5.44	3.10219
5.45	3.09561
5.46	3.08048
5.47	3.09232
5.48	3.07127
5.49	3.09692
5.5	3.0989
5.51	3.07291
5.52	3.07094
5.53	3.09166
5.54	3.09758
5.55	3.07258
5.56	3.10449
5.57	3.06436
5.58	3.06765
5.59	3.12456
5.6	3.09791
5.61	3.12094
5.62	3.10844
5.63	3.08245
5.64	3.07817
5.65	3.09791
5.66	3.12949
5.67	3.0864
5.68	3.09528
5.69	3.09133
5.7	3.09989
5.71	3.07423
5.72	3.07883
5.73	3.11436
5.74	3.116
5.75	3.08442
5.76	3.07094
5.77	3.06863
5.78	3.0966
5.79	3.11008
5.8	3.0716
5.81	3.08673
5.82	3.09692
5.83	3.11041
5.84	3.1091
5.85	3.09133
5.86	3.07719
5.87	3.04594
5.88	3.07258
5.89	3.07686
5.9	3.09561
5.91	3.07785
5.92	3.07883
5.93	3.09923
5.94	3.091
5.95	3.0762
5.96	3.08969
5.97	3.09725
5.98	3.09133
5.99	3.09725
6	3.10054
6.01	3.09002
6.02	3.10318
6.03	3.11831
6.04	3.12225
6.05	3.08903
6.06	3.1114
6.07	3.07225
6.08	3.10515
6.09	3.06929
6.1	3.08673
6.11	3.07686
6.12	3.06633
6.13	3.05613
6.14	3.0785
6.15	3.0864
6.16	3.10186
6.17	3.08903
6.18	3.04462
6.19	3.07916
6.2	3.06074
6.21	3.04988
6.22	3.07061
6.23	3.07686
6.24	3.11074
6.25	3.10285
6.26	3.06962
6.27	3.07883
6.28	3.0535
6.29	3.06666
6.3	3.08179
6.31	3.08113
6.32	3.06502
6.33	3.06633
6.34	3.05679
6.35	3.05975
6.36	3.08936
6.37	3.07719
6.38	3.08245
6.39	3.04561
6.4	3.08245
6.41	3.05153
6.42	3.10054
6.43	3.08936
6.44	3.10383
6.45	3.04791
6.46	3.09002
6.47	3.07817
6.48	3.07949
6.49	3.0739
6.5	3.08048
6.51	3.09725
6.52	3.06304
6.53	3.08311
6.54	3.07916
6.55	3.0739
6.56	3.0716
6.57	3.10318
6.58	3.08903
6.59	3.04495
6.6	3.06567
6.61	3.08048
6.62	3.07192
6.63	3.07686
6.64	3.06863
6.65	3.08969
6.66	3.06765
6.67	3.06732
6.68	3.09199
6.69	3.0637
6.7	3.06074
6.71	3.07521
6.72	3.0716
6.73	3.07127
6.74	3.07225
6.75	3.05581
6.76	3.06173
6.77	3.0966
6.78	3.06074
6.79	3.08541
6.8	3.05877
6.81	3.03969
6.82	3.06107
6.83	3.06929
6.84	3.08442
6.85	3.07456
6.86	3.07094
6.87	3.06041
6.88	3.05646
6.89	3.04923
6.9	3.0716
6.91	3.07785
6.92	3.07357
6.93	3.0535
6.94	3.07883
6.95	3.05383
6.96	3.06962
6.97	3.06831
6.98	3.09002
6.99	3.06666
7	3.07291
7.01	3.06896
7.02	3.06041
7.03	3.08475
7.04	3.08837
7.05	3.07357
7.06	3.0637
7.07	3.05877
7.08	3.07061
7.09	3.05482
7.1	3.03673
7.11	3.05877
7.12	3.04594
7.13	3.08804
7.14	3.05548
7.15	3.03212
7.16	3.07192
7.17	3.07225
7.18	3.06206
7.19	3.05778
7.2	3.05153
7.21	3.07587
7.22	3.03705
7.23	3.06995
7.24	3.08508
7.25	3.05021
7.26	3.0841
7.27	3.10745
7.28	3.09429
7.29	3.08048
7.3	3.07719
7.31	3.08311
7.32	3.07883
7.33	3.07817
7.34	3.04002
7.35	3.03245
7.36	3.04363
7.37	3.03409
7.38	3.03245
7.39	3.03837
7.4	3.07291
7.41	3.07357
7.42	3.08146
7.43	3.06206
7.44	3.05021
7.45	3.0614
7.46	3.04462
7.47	3.03344
7.48	3.06403
7.49	3.04692
7.5	3.05942
7.51	3.06403
7.52	3.07258
7.53	3.06107
7.54	3.07258
7.55	3.04067
7.56	3.05284
7.57	3.05284
7.58	3.08442
7.59	3.05186
7.6	3.05745
7.61	3.01863
7.62	3.04791
7.63	3.04363
7.64	3.0364
7.65	3.06008
7.66	3.03574
7.67	3.04659
7.68	3.04988
7.69	3.03409
7.7	3.05252
7.71	3.04002
7.72	3.05482
7.73	3.04758
7.74	3.06666
7.75	3.04627
7.76	3.05548
7.77	3.04692
7.78	3.06962
7.79	3.03278
7.8	3.07423
7.81	3.08245
7.82	3.041
7.83	3.04791
7.84	3.08179
7.85	3.04528
7.86	3.03837
7.87	3.05054
7.88	3.05909
7.89	3.0364
7.9	3.04298
7.91	3.041
7.92	3.05482
7.93	3.04232
7.94	3.05712
7.95	3.03804
7.96	3.05383
7.97	3.08837
7.98	3.06403
7.99	3.00975
8	3.06074
8.01	3.08113
8.02	3.05383
8.03	3.07719
8.04	3.02982
8.05	3.06436
8.06	3.06534
8.07	3.06896
8.08	3.07324
8.09	3.04857
8.1	3.06107
8.11	3.03015
8.12	3.03541
8.13	3.06534
8.14	3.041
8.15	3.03146
8.16	3.05745
8.17	3.02291
8.18	3.0535
8.19	3.02291
8.2	3.04265
8.21	3.08475
8.22	3.06107
8.23	3.0387
8.24	3.04034
8.25	3.02126
8.26	3.07883
8.27	3.07949
8.28	3.0489
8.29	3.00646
8.3	3.06304
8.31	3.05284
8.32	3.0489
8.33	3.0262
8.34	3.02423
8.35	3.01107
8.36	2.99659
8.37	3.04955
8.38	3.02719
8.39	3.04594
8.4	3.06469
8.41	3.04955
8.42	3.01666
8.43	3.0512
8.44	3.02554
8.45	3.01863
8.46	3.0308
8.47	3.05054
8.48	3.04791
8.49	3.05515
8.5	3.05153
8.51	3.06403
8.52	3.04988
8.53	3.0433
8.54	3.04528
8.55	3.02751
8.56	3.04791
8.57	3.0239
8.58	3.06567
8.59	3.06567
8.6	3.07686
8.61	3.04627
8.62	3.03278
8.63	3.04396
8.64	3.03936
8.65	3.0614
8.66	3.07324
8.67	3.06304
8.68	3.0739
8.69	3.04133
8.7	3.01962
8.71	3.03179
8.72	3.05449
8.73	3.08113
8.74	3.0308
8.75	3.04857
8.76	3.03673
8.77	3.04429
8.78	3.05548
8.79	3.03508
8.8	3.05317
8.81	3.02653
8.82	3.04067
8.83	2.99791
8.84	3.0308
8.85	3.00679
8.86	3.02719
8.87	3.05252
8.88	3.06567
8.89	3.01501
8.9	3.01436
8.91	3.03344
8.92	3.04265
8.93	3.05646
8.94	3.05646
8.95	3.03738
8.96	3.04232
8.97	3.0535
8.98	3.0262
8.99	3.02784
9	3.0285
9.01	2.99857
9.02	3.02916
9.03	3.02817
9.04	2.99626
9.05	3.04133
9.06	3.06041
9.07	3.02916
9.08	3.02488
9.09	3.02423
9.1	3.03344
9.11	3.02357
9.12	3.016
9.13	2.99922
9.14	3.04034
9.15	3.04561
9.16	3.05021
9.17	3.02159
9.18	3.0239
9.19	3.05811
9.2	3.0308
9.21	3.03376
9.22	3.03607
9.23	3.02225
9.24	3.01271
9.25	3.01929
9.26	3.06732
9.27	3.02784
9.28	2.99955
9.29	3.03146
9.3	3.01469
9.31	3.0285
9.32	3.04232
9.33	3.01962
9.34	3.01962
9.35	3.03607
9.36	3.05021
9.37	3.02686
9.38	3.01765
9.39	3.04824
9.4	3.04758
9.41	3.06831
9.42	3.03771
9.43	3.01962
9.44	3.00449
9.45	3.00547
9.46	3.02028
9.47	3.03146
9.48	3.05186
9.49	3.03607
9.5	3.0387
9.51	3.00383
9.52	3.0114
9.53	3.03574
9.54	3.05317
9.55	3.0308
9.56	3.03212
9.57	3.04758
9.58	3.03179
9.59	3.02719
9.6	3.06074
9.61	3.00153
9.62	2.99692
9.63	3.06699
9.64	3.04133
9.65	3.00679
9.66	2.98804
9.67	3.02028
9.68	3.02817
9.69	3.01798
9.7	3.03048
9.71	3.00909
9.72	3.02751
9.73	3.01798
9.74	3.00942
9.75	2.99067
9.76	3.02159
9.77	3.04298
9.78	3.01896
9.79	3.02291
9.8	3.01896
9.81	3.02192
9.82	3.01995
9.83	3.02521
9.84	3.04692
9.85	3.02324
9.86	3.0262
9.87	3.03113
9.88	2.9933
9.89	3.0285
9.9	2.98705
9.91	3.01041
9.92	2.98376
9.93	2.99758
9.94	3.01107
9.95	3.00317
9.96	3.00482
9.97	3.00844
9.98	2.99857
9.99	3.00909
10	2.98212
10.01	2.98508
10.02	3.00284
10.03	3.03936
10.04	3.00547
10.05	2.9933
10.06	3.01172
10.07	3.02126
10.08	3.04594
10.09	3.03903
10.1	3.04429
10.11	3.0035
10.12	3.01205
10.13	3.01008
10.14	3.02521
10.15	3.02817
10.16	3.05021
10.17	3.05548
10.18	3.01863
10.19	3.05745
10.2	3.03673
10.21	3.02357
10.22	3.00712
10.23	2.96238
10.24	2.99692
10.25	3.0114
10.26	2.99791
10.27	3.01008
10.28	3.03771
10.29	3.04265
10.3	3.02028
10.31	3.01534
10.32	3.00021
10.33	3.03278
10.34	2.99297
10.35	2.99561
10.36	3.00087
10.37	3.01074
10.38	3.00449
10.39	3.01798
10.4	3.01271
10.41	3.02817
10.42	3.0137
10.43	3.00646
10.44	2.99824
10.45	3.02423
10.46	3.0035
10.47	3.01666
10.48	3.01271
10.49	3.02126
10.5	3.0285
10.51	3.00317
10.52	3.03245
10.53	3.04462
10.54	3.00712
10.55	3.00021
10.56	3.01271
10.57	3.01732
10.58	3.0137
10.59	3.00515
10.6	2.99034
10.61	3.01008
10.62	3.01403
10.63	3.05153
10.64	3.01666
10.65	2.97817
10.66	2.99692
10.67	3.00844
10.68	3.02192
10.69	3.016
10.7	3.00646
10.71	2.98574
10.72	3.00909
10.73	3.01304
10.74	3.00515
10.75	3.00909
10.76	3.01304
10.77	3.0239
10.78	3.0058
10.79	3.00317
10.8	2.99067
10.81	3.00646
10.82	3.02258
10.83	2.98936
10.84	3.02126
10.85	2.98179
10.86	3.02225
10.87	3.02719
10.88	3.02126
10.89	2.97916
10.9	2.97488
10.91	3.00449
10.92	2.98771
10.93	3.00876
10.94	3.04528
10.95	3.03344
10.96	3.02949
10.97	2.99199
10.98	3.00712
10.99	3.00251
11	3.02719
11.01	3.02258
11.02	3.01271
11.03	3.01765
11.04	2.99034
11.05	2.98278
11.06	3.00317
11.07	3.00778
11.08	2.9683
11.09	2.97093
11.1	3.00876
11.11	3.02554
11.12	3.02357
11.13	3.00186
11.14	3.00844
11.15	3.00975
11.16	3.0239
11.17	2.99067
11.18	2.97521
11.19	2.97784
11.2	3.0035
11.21	3.01041
11.22	3.02258
11.23	3.00087
11.24	2.99626
11.25	2.99824
11.26	2.98607
11.27	3.01304
11.28	2.99988
11.29	3.00811
11.3	3.01929
11.31	2.99758
11.32	3.00547
11.33	3.02916
11.34	3.00745
11.35	3.00482
11.36	2.97159
11.37	2.96863
11.38	2.97949
11.39	3.01337
11.4	2.99955
11.41	3.01172
11.42	3.00251
11.43	3.01469
11.44	3.02916
11.45	2.96666
11.46	2.99199
11.47	3.01765
11.48	2.991
11.49	2.99133
11.5	3.00844
11.51	2.98475
11.52	2.99955
11.53	2.99791
11.54	3.00383
11.55	3.00317
11.56	2.99692
11.57	3.0239
11.58	3.01995
11.59	2.99824
11.6	2.98409
11.61	3.01205
11.62	3.0137
11.63	3.00383
11.64	2.98442
11.65	3.00646
11.66	2.98475
11.67	2.97357
11.68	3.00679
11.69	3.01469
11.7	3.02784
11.71	2.98343
11.72	2.97126
11.73	3.02719
11.74	3.04199
11.75	3.01107
11.76	3.016
11.77	2.99593
11.78	3.00284
11.79	3.00219
11.8	3.03442
11.81	3.0262
11.82	2.99626
11.83	3.00383
11.84	3.02291
11.85	2.98245
11.86	2.98311
11.87	3.02784
11.88	2.96962
11.89	2.97422
11.9	2.99659
11.91	2.99857
11.92	2.98968
11.93	2.97916
11.94	3.00876
11.95	2.99955
11.96	2.99692
11.97	3.01172
11.98	3.01074
11.99	2.98179
12	2.96468
12.01	3.00482
12.02	3.0183
12.03	3.00317
12.04	2.99396
12.05	3.00613
12.06	3.01304
12.07	2.98508
12.08	2.98278
12.09	3.00942
12.1	3.03705
12.11	2.97192
12.12	2.9637
12.13	2.96238
12.14	2.97949
12.15	3.01107
12.16	2.96435
12.17	2.99297
12.18	2.98014
12.19	2.9808
12.2	2.99001
12.21	2.97883
12.22	3.01567
12.23	3.04199
12.24	2.9989
12.25	2.99593
12.26	2.97653
12.27	2.94856
12.28	2.96633
12.29	3.0012
12.3	2.99692
12.31	3.00613
12.32	2.99166
12.33	2.97587
12.34	2.96666
12.35	2.96797
12.36	2.97784
12.37	2.9887
12.38	2.96896
12.39	3.00251
12.4	2.98541
12.41	2.99758
12.42	3.02751
12.43	3.00712
12.44	3.00679
12.45	2.97422
12.46	2.95514
12.47	2.98047
12.48	2.98047
12.49	2.98014
12.5	2.98343
12.51	2.97225
12.52	3.00449
12.53	2.98113
12.54	3.0137
12.55	3.00942
12.56	3.00186
12.57	3.01008
12.58	3.0183
12.59	2.99955
12.6	3.00909
12.61	3.02554
12.62	3.00646
12.63	2.9808
12.64	2.99955
12.65	3.00876
12.66	3.01238
12.67	3.01337
12.68	3.00844
12.69	3.00942
12.7	3.01501
12.71	2.9864
12.72	2.99133
12.73	2.99659
12.74	2.9808
12.75	2.97982
12.76	3.00186
12.77	2.99955
12.78	2.96107
12.79	2.99034
12.8	2.97718
12.81	2.991
12.82	3.00679
12.83	3.00416
12.84	2.99692
12.85	3.00383
12.86	2.98311
12.87	3.00284
12.88	3.00679
12.89	3.0012
12.9	3.01436
12.91	2.96534
12.92	2.95909
12.93	2.96929
12.94	2.98014
12.95	3.00482
12.96	2.96403
12.97	2.99297
12.98	3.00186
12.99	2.97093
13	2.94166
13.01	2.97916
13.02	2.98146
13.03	2.97883
13.04	2.97455
13.05	2.97554
13.06	2.98705
13.07	2.96468
13.08	2.98936
13.09	2.98014
13.1	2.98936
13.11	3.00745
13.12	2.99824
13.13	2.95679
13.14	2.97686
13.15	2.9683
13.16	2.98278
13.17	2.99363
13.18	2.98113
13.19	3.00975
13.2	2.97916
13.21	3.01896
13.22	3.00646
13.23	2.95547
13.24	2.97061
13.25	2.97686
13.26	2.96699
13.27	2.96633
13.28	2.96139
13.29	2.96403
13.3	2.96435
13.31	2.97455
13.32	2.96534
13.33	2.97324
13.34	2.98245
13.35	2.9933
13.36	2.97028
13.37	2.95218
13.38	2.97093
13.39	2.98672
13.4	2.98508
13.41	3.0035
13.42	2.99528
13.43	2.98705
13.44	2.99232
13.45	2.96699
13.46	3.00219
13.47	2.97061
13.48	2.98212
13.49	2.966
13.5	2.96139
13.51	2.98113
13.52	3.0012
13.53	2.98245
13.54	3.01271
13.55	3.01436
13.56	2.99922
13.57	3.00613
13.58	3.02817
13.59	2.99067
13.6	2.98113
13.61	2.94528
13.62	2.9808
13.63	2.98376
13.64	2.98574
13.65	2.94791
13.66	2.99133
13.67	2.95679
13.68	2.96271
13.69	2.941
13.7	2.97521
13.71	2.98212
13.72	2.9785
13.73	2.98278
13.74	2.94199
13.75	2.94856
13.76	2.96764
13.77	2.98245
13.78	3.00284
13.79	2.97093
13.8	2.96271
13.81	2.98014
13.82	2.97488
13.83	2.99462
13.84	2.98903
13.85	3.0035
13.86	2.96567
13.87	2.9558
13.88	3.01271
13.89	3.00778
13.9	2.97653
13.91	2.98212
13.92	2.97817
13.93	2.93903
13.94	2.98376
13.95	2.98903
13.96	2.96764
13.97	2.98212
13.98	2.99561
13.99	2.99067
14	2.95646
14.01	2.98672
14.02	3.01271
14.03	2.99692
14.04	3.02455
14.05	3.00054
14.06	2.98113
14.07	2.97324
14.08	2.98245
14.09	2.98475
14.1	2.96403
14.11	2.97587
14.12	2.96501
14.13	2.96633
14.14	2.98376
14.15	2.97949
14.16	2.99265
14.17	2.98343
14.18	2.98541
14.19	2.96962
14.2	2.97817
14.21	2.95712
14.22	2.9762
14.23	2.97949
14.24	2.99758
14.25	2.97126
14.26	2.98343
14.27	2.99922
14.28	2.96435
14.29	2.93113
14.3	2.96468
14.31	2.95153
14.32	2.96139
14.33	2.9535
14.34	2.99265
14.35	2.97883
14.36	2.95416
14.37	2.97949
14.38	2.96797
14.39	2.96139
14.4	2.96074
14.41	2.93804
14.42	2.92192
14.43	2.95613
14.44	2.98442
14.45	2.96929
14.46	2.98442
14.47	2.94231
14.48	2.94528
14.49	2.97159
14.5	2.96699
14.51	2.99297
14.52	2.97159
14.53	2.96633
14.54	3.00778
14.55	2.99626
14.56	2.97587
14.57	2.95153
14.58	2.93014
14.59	2.93804
14.6	2.9785
14.61	2.98278
14.62	2.98705
14.63	2.96863
14.64	2.966
14.65	2.98705
14.66	2.96699
14.67	2.95876
14.68	2.95251
14.69	2.97422
14.7	2.95251
14.71	2.97061
14.72	2.99725
14.73	2.97883
14.74	3.01469
14.75	2.94396
14.76	2.95251
14.77	2.94396
14.78	2.95383
14.79	2.94988
14.8	2.94231
14.81	2.97455
14.82	2.94659
14.83	2.95153
14.84	2.95745
14.85	2.94593
14.86	2.96732
14.87	2.95021
14.88	2.93968
14.89	2.9683
14.9	2.96107
14.91	2.96172
14.92	2.96995
14.93	2.94001
14.94	2.93179
14.95	2.94626
14.96	2.93639
14.97	2.96139
14.98	2.96995
14.99	2.96304
15	2.97258
15.01	2.98179
15.02	2.98179
15.03	2.97192
15.04	2.97587
15.05	2.97389
15.06	2.96468
15.07	2.99758
15.08	2.99166
15.09	2.97258
15.1	2.95514
15.11	2.97389
15.12	2.96699
15.13	2.97455
15.14	3.00087
15.15	2.97686
15.16	2.96962
15.17	2.9808
15.18	2.99429
15.19	2.98113
15.2	2.93047
15.21	2.96271
15.22	2.966
15.23	2.94495
15.24	2.94626
15.25	2.93606
15.26	2.96107
15.27	2.98179
15.28	2.96271
15.29	2.94429
15.3	2.95317
15.31	2.93574
15.32	2.95054
15.33	2.96699
15.34	2.98146
15.35	2.95843
15.36	2.97225
15.37	2.95317
15.38	2.93738
15.39	2.9433
15.4	2.966
15.41	2.94495
15.42	2.97455
15.43	3.00317
15.44	2.96797
15.45	2.97883
15.46	2.99988
15.47	2.96929
15.48	2.9683
15.49	2.98179
15.5	2.96797
15.51	2.97455
15.52	2.9308
15.53	2.95087
15.54	2.95317
15.55	2.95646
15.56	2.93804
15.57	2.96271
15.58	2.9637
15.59	2.97718
15.6	2.97587
15.61	2.93968
15.62	2.97093
15.63	2.95712
15.64	2.97521
15.65	2.96403
15.66	2.95909
15.67	2.95449
15.68	2.94363
15.69	2.95251
15.7	2.94889
15.71	2.99561
15.72	2.91962
15.73	2.98245
15.74	2.95449
15.75	2.96074
15.76	2.96271
15.77	2.95416
15.78	2.94001
15.79	2.9535
15.8	2.95514
15.81	2.94659
15.82	2.96501
15.83	2.95416
15.84	2.97422
15.85	2.98113
15.86	2.9512
15.87	2.95942
15.88	2.94199
15.89	2.94593
15.9	2.94626
15.91	2.95547
15.92	2.94988
15.93	2.97784
15.94	2.93968
15.95	2.93014
15.96	2.95876
15.97	2.91698
15.98	2.95482
15.99	2.94001
16	2.94166
16.01	2.93672
16.02	2.95778
16.03	2.96797
16.04	2.94955
16.05	2.93442
16.06	2.93541
16.07	2.96666
16.08	2.98343
16.09	2.94133
16.1	2.95646
16.11	2.94593
16.12	2.9581
16.13	2.9535
16.14	2.95646
16.15	2.97192
16.16	2.95021
16.17	2.96896
16.18	2.96962
16.19	2.9808
16.2	2.97126
16.21	2.98179
16.22	2.96732
16.23	2.97686
16.24	2.97126
16.25	2.94001
16.26	2.9456
16.27	2.98409
16.28	2.97488
16.29	2.92521
16.3	2.95251
16.31	2.94988
16.32	2.95284
16.33	2.98343
16.34	2.966
16.35	2.98245
16.36	2.96896
16.37	2.93606
16.38	2.97653
16.39	2.9558
16.4	2.94462
16.41	2.96435
16.42	2.9512
16.43	2.93508
16.44	2.91863
16.45	2.93903
16.46	2.94955
16.47	2.94626
16.48	2.93146
16.49	2.9512
16.5	2.95745
16.51	2.95613
16.52	2.95745
16.53	2.93179
16.54	2.93574
16.55	2.94593
16.56	2.95679
16.57	2.93541
16.58	2.96172
16.59	2.95876
16.6	2.91995
16.61	2.92356
16.62	2.92949
16.63	2.97324
16.64	2.94297
16.65	2.93179
16.66	2.91633
16.67	2.93738
16.68	2.93376
16.69	2.97751
16.7	2.97126
16.71	2.96271
16.72	2.95218
16.73	2.94824
16.74	2.96863
16.75	2.9262
16.76	2.94889
16.77	2.97422
16.78	2.9808
16.79	2.94199
16.8	2.97686
16.81	2.96732
16.82	2.94231
16.83	2.97126
16.84	2.91698
16.85	2.95679
16.86	2.95975
16.87	2.93837
16.88	2.96666
16.89	2.97258
16.9	2.95185
16.91	2.93343
16.92	2.95251
16.93	2.95284
16.94	2.97324
16.95	2.94955
16.96	2.96337
16.97	2.97357
16.98	2.97159
16.99	2.92258
17	2.96863
17.01	2.95876
17.02	2.93442
17.03	2.91633
17.04	2.92751
17.05	2.9183
17.06	2.91008
17.07	2.96666
17.08	2.93508
17.09	2.94626
17.1	2.93771
17.11	2.95449
17.12	2.97587
17.13	2.96699
17.14	2.98672
17.15	2.9535
17.16	2.96534
17.17	2.93442
17.18	2.9433
17.19	2.97192
17.2	2.95021
17.21	2.96172
17.22	2.96764
17.23	2.94791
17.24	2.9387
17.25	2.97291
17.26	2.97883
17.27	2.97225
17.28	2.92291
17.29	2.95218
17.3	2.95449
17.31	2.95909
17.32	2.93245
17.33	2.95843
17.34	2.94856
17.35	2.92883
17.36	2.93672
17.37	2.94133
17.38	2.94166
17.39	2.94462
17.4	2.95416
17.41	2.9433
17.42	2.93837
17.43	2.92291
17.44	2.94133
17.45	2.92258
17.46	2.95613
17.47	2.96271
17.48	2.9433
17.49	2.93639
17.5	2.95942
17.51	2.97225
17.52	2.96962
17.53	2.941
17.54	2.94495
17.55	2.91896
17.56	2.91172
17.57	2.95909
17.58	2.95383
17.59	2.96041
17.6	2.95942
17.61	2.93639
17.62	2.96567
17.63	2.96501
17.64	2.94856
17.65	2.95185
17.66	2.94429
17.67	2.94791
17.68	2.93508
17.69	2.93639
17.7	2.93376
17.71	2.93475
17.72	2.92718
17.73	2.94462
17.74	2.94231
17.75	2.93014
17.76	2.93508
17.77	2.95317
17.78	2.94955
17.79	2.9535
17.8	2.91764
17.81	2.93574
17.82	2.9456
17.83	2.94758
17.84	2.95218
17.85	2.95383
17.86	2.94133
17.87	2.91567
17.88	2.93343
17.89	2.95514
17.9	2.95646
17.91	2.96403
17.92	2.97291
17.93	2.93705
17.94	2.93113
17.95	2.95021
17.96	2.96764
17.97	2.95942
17.98	2.97357
17.99	2.96929
18	2.9285
18.01	2.94462
18.02	2.93508
18.03	2.90745
18.04	2.92751
18.05	2.95942
18.06	2.95482
18.07	2.94231
18.08	2.966
18.09	2.95317
18.1	2.9262
18.11	2.93179
18.12	2.96962
18.13	2.92652
18.14	2.94692
18.15	2.95613
18.16	2.991
18.17	2.93014
18.18	2.95383
18.19	2.97028
18.2	2.92455
18.21	2.93935
18.22	2.94199
18.23	2.96764
18.24	2.96074
18.25	2.92784
18.26	2.93903
18.27	2.93277
18.28	2.91929
18.29	2.93475
18.3	2.91041
18.31	2.92883
18.32	2.93475
18.33	2.95613
18.34	2.94231
18.35	2.94725
18.36	2.94462
18.37	2.97455
18.38	2.94889
18.39	2.96238
18.4	2.96962
18.41	2.96337
18.42	2.92027
18.43	2.91962
18.44	2.94725
18.45	2.94659
18.46	2.93672
18.47	2.90712
18.48	2.93935
18.49	2.9433
18.5	2.91995
18.51	2.91567
18.52	2.95909
18.53	2.95284
18.54	2.93968
18.55	2.94429
18.56	2.94495
18.57	2.95218
18.58	2.95679
18.59	2.95087
18.6	2.9206
18.61	2.94001
18.62	2.97982
18.63	2.93047
18.64	2.91731
18.65	2.94133
18.66	2.92554
18.67	2.91731
18.68	2.93508
18.69	2.93343
18.7	2.94462
18.71	2.91106
18.72	2.92455
18.73	2.92389
18.74	2.93343
18.75	2.94791
18.76	2.95482
18.77	2.9262
18.78	2.93738
18.79	2.92521
18.8	2.93639
18.81	2.94034
18.82	2.95712
18.83	2.97784
18.84	2.93277
18.85	2.93146
18.86	2.93212
18.87	2.94067
18.88	2.9512
18.89	2.95383
18.9	2.9331
18.91	2.95021
18.92	2.93442
18.93	2.92126
18.94	2.93903
18.95	2.9558
18.96	2.96797
18.97	2.97028
18.98	2.94659
18.99	2.91271
19	2.94396
19.01	2.93672
19.02	2.92159
19.03	2.9433
19.04	2.96534
19.05	2.96403
19.06	2.93475
19.07	2.95416
19.08	2.94955
19.09	2.96238
19.1	2.9683
19.11	2.96468
19.12	2.95547
19.13	2.94396
19.14	2.92389
19.15	2.97225
19.16	2.97192
19.17	2.97061
19.18	2.94166
19.19	2.95778
19.2	2.9558
19.21	2.93705
19.22	2.94692
19.23	2.96435
19.24	2.92126
19.25	2.95482
19.26	2.95613
19.27	2.93376
19.28	2.9762
19.29	2.9581
19.3	2.94528
19.31	2.95449
19.32	2.9456
19.33	2.92685
19.34	2.92718
19.35	2.91501
19.36	2.93409
19.37	2.95514
19.38	2.98146
19.39	2.95284
19.4	2.93672
19.41	2.95942
19.42	2.94922
19.43	2.96962
19.44	2.95021
19.45	2.9387
19.46	2.92291
19.47	2.95547
19.48	2.96666
19.49	2.94264
19.5	2.92981
19.51	2.9206
19.52	2.92093
19.53	2.91304
19.54	2.93639
19.55	2.93903
19.56	2.94791
19.57	2.9456
19.58	2.95416
19.59	2.92883
19.6	2.92093
19.61	2.91106
19.62	2.95975
19.63	2.95284
19.64	2.93442
19.65	2.94955
19.66	2.94692
19.67	2.92422
19.68	2.9262
19.69	2.94067
19.7	2.96534
19.71	2.98574
19.72	2.94067
19.73	2.89593
19.74	2.90087
19.75	2.91271
19.76	2.93804
19.77	2.91435
19.78	2.90185
19.79	2.941
19.8	2.97028
19.81	2.96139
19.82	2.95449
19.83	2.95514
19.84	2.94166
19.85	2.91008
19.86	2.93672
19.87	2.95482
19.88	2.93606
19.89	2.93179
19.9	2.96468
19.91	2.94824
19.92	2.94363
19.93	2.93014
19.94	2.92225
19.95	2.93968
19.96	2.95942
19.97	2.94231
19.98	2.92916
19.99	2.94758
20	2.94856
20.01	2.93442
20.02	2.9456
20.03	2.96304
20.04	2.94593
20.05	2.91567
20.06	2.94363
20.07	2.94363
20.08	2.90021
20.09	2.92159
20.1	2.9331
20.11	2.94659
20.12	2.90613
20.13	2.94593
20.14	2.94495
20.15	2.94297
20.16	2.95054
20.17	2.93705
20.18	2.9387
20.19	2.92587
20.2	2.93113
20.21	2.91534
20.22	2.90448
20.23	2.93672
20.24	2.95284
20.25	2.95317
20.26	2.96732
20.27	2.93277
20.28	2.93935
20.29	2.93606
20.3	2.93047
20.31	2.90448
20.32	2.92521
20.33	2.92587
20.34	2.91962
20.35	2.94725
20.36	2.94199
20.37	2.92324
20.38	2.916
20.39	2.91271
20.4	2.9512
20.41	2.9331
20.42	2.91633
20.43	2.93738
20.44	2.94133
20.45	2.91896
20.46	2.94297
20.47	2.93935
20.48	2.9262
20.49	2.94166
20.5	2.93837
20.51	2.941
20.52	2.92192
20.53	2.94363
20.54	2.966
20.55	2.9285
20.56	2.941
20.57	2.91534
20.58	2.93113
20.59	2.96995
20.6	2.96337
20.61	2.92521
20.62	2.92554
20.63	2.94659
20.64	2.92389
20.65	2.9285
20.66	2.95054
20.67	2.93574
20.68	2.96271
20.69	2.91962
20.7	2.96041
20.71	2.93475
20.72	2.93804
20.73	2.91567
20.74	2.93475
20.75	2.98771
20.76	2.93672
20.77	2.90152
20.78	2.90481
20.79	2.90218
20.8	2.92093
20.81	2.93903
20.82	2.95284
20.83	2.9331
20.84	2.9387
20.85	2.95712
20.86	2.95054
20.87	2.94758
20.88	2.95383
20.89	2.97126
20.9	2.92225
20.91	2.91633
20.92	2.9456
20.93	2.93837
20.94	2.94824
20.95	2.96139
20.96	2.92718
20.97	2.91041
20.98	2.97357
20.99	2.95153
21	2.93837
21.01	2.94133
21.02	2.94758
21.03	2.96435
21.04	2.9387
21.05	2.91041
21.06	2.93903
21.07	2.94199
21.08	2.92521
21.09	2.95843
21.1	2.93376
21.11	2.941
21.12	2.96534
21.13	2.98047
21.14	2.95745
21.15	2.92587
21.16	2.92554
21.17	2.94297
21.18	2.93837
21.19	2.94231
21.2	2.96501
21.21	2.92916
21.22	2.93475
21.23	2.93409
21.24	2.93146
21.25	2.93606
21.26	2.91731
21.27	2.91271
21.28	2.92488
21.29	2.91501
21.3	2.92126
21.31	2.91896
21.32	2.92817
21.33	2.94593
21.34	2.93738
21.35	2.95514
21.36	2.92685
21.37	2.90448
21.38	2.90448
21.39	2.91764
21.4	2.91534
21.41	2.91698
21.42	2.94824
21.43	2.92291
21.44	2.93442
21.45	2.92422
21.46	2.93705
21.47	2.93738
21.48	2.93508
21.49	2.93409
21.5	2.95251
21.51	2.94988
21.52	2.92817
21.53	2.93146
21.54	2.89198
21.55	2.92554
21.56	2.94593
21.57	2.94264
21.58	2.95514
21.59	2.92817
21.6	2.91698
21.61	2.94725
21.62	2.94166
21.63	2.93738
21.64	2.9535
21.65	2.89922
21.66	2.89955
21.67	2.88343
21.68	2.87126
21.69	2.91797
21.7	2.92389
21.71	2.92192
21.72	2.90514
21.73	2.94462
21.74	2.94429
21.75	2.92126
21.76	2.9308
21.77	2.90218
21.78	2.92718
21.79	2.91271
21.8	2.95646
21.81	2.94462
21.82	2.94067
21.83	2.90843
21.84	2.9206
21.85	2.94659
21.86	2.94955
21.87	2.95021
21.88	2.94001
21.89	2.91468
21.9	2.92949
21.91	2.89429
21.92	2.91271
21.93	2.93014
21.94	2.9331
21.95	2.91139
21.96	2.91731
21.97	2.94297
21.98	2.91041
21.99	2.91731
22	2.91008
22.01	2.94166
22.02	2.94824
22.03	2.89034
22.04	2.92027
22.05	2.91172
22.06	2.87652
22.07	2.89166
22.08	2.90975
22.09	2.91929
22.1	2.94166
22.11	2.97389
22.12	2.95646
22.13	2.96896
22.14	2.92784
22.15	2.92389
22.16	2.92093
22.17	2.89494
22.18	2.90416
22.19	2.95482
22.2	2.94363
22.21	2.93376
22.22	2.94495
22.23	2.94889
22.24	2.9206
22.25	2.91205
22.26	2.93179
22.27	2.92324
22.28	2.94593
22.29	2.97258
22.3	2.93672
22.31	2.91008
22.32	2.93245
22.33	2.91271
22.34	2.92225
22.35	2.95284
22.36	2.94199
22.37	2.94462
22.38	2.96041
22.39	2.92356
22.4	2.94363
22.41	2.9183
22.42	2.92981
22.43	2.93574
22.44	2.90448
22.45	2.91271
22.46	2.89593
22.47	2.94626
22.48	2.94264
22.49	2.92389
22.5	2.92554
22.51	2.91534
22.52	2.89659
22.53	2.91402
22.54	2.92981
22.55	2.88376
22.56	2.93047
22.57	2.96896
22.58	2.91073
22.59	2.94001
22.6	2.94626
22.61	2.89494
22.62	2.91633
22.63	2.92126
22.64	2.92291
22.65	2.9331
22.66	2.92488
22.67	2.93903
22.68	2.9206
22.69	2.90383
22.7	2.91106
22.71	2.91929
22.72	2.94363
22.73	2.90679
22.74	2.88968
22.75	2.92389
22.76	2.91468
22.77	2.89198
22.78	2.89889
22.79	2.91073
22.8	2.93606
22.81	2.94988
22.82	2.91698
22.83	2.90448
22.84	2.91073
22.85	2.90251
22.86	2.91567
22.87	2.92718
22.88	2.90119
22.89	2.9387
22.9	2.94725
22.91	2.94363
22.92	2.91698
22.93	2.94396
22.94	2.92949
22.95	2.91008
22.96	2.91271
22.97	2.94955
22.98	2.92949
22.99	2.89527
23	2.91238
23.01	2.95942
23.02	2.92324
23.03	2.95251
23.04	2.93903
23.05	2.91929
23.06	2.9081
23.07	2.9262
23.08	2.94528
23.09	2.9331
23.1	2.89527
23.11	2.9183
23.12	2.94593
23.13	2.94955
23.14	2.92225
23.15	2.94955
23.16	2.94166
23.17	2.92981
23.18	2.92587
23.19	2.90514
23.2	2.92258
23.21	2.93146
23.22	2.91337
23.23	2.92093
23.24	2.90745
23.25	2.90514
23.26	2.90383
23.27	2.91139
23.28	2.96139
23.29	2.8956
23.3	2.91698
23.31	2.91797
23.32	2.93409
23.33	2.91534
23.34	2.90646
23.35	2.92192
23.36	2.93376
23.37	2.94034
23.38	2.92883
23.39	2.91633
23.4	2.92916
23.41	2.91139
23.42	2.91106
23.43	2.94988
23.44	2.95613
23.45	2.93179
23.46	2.93442
23.47	2.93245
23.48	2.94626
23.49	2.93277
23.5	2.93606
23.51	2.93376
23.52	2.90975
23.53	2.91797
23.54	2.94231
23.55	2.94791
23.56	2.94133
23.57	2.91008
23.58	2.9183
23.59	2.9308
23.6	2.91633
23.61	2.91435
23.62	2.90383
23.63	2.93376
23.64	2.93277
23.65	2.90251
23.66	2.91764
23.67	2.9512
23.68	2.9058
23.69	2.88639
23.7	2.88771
23.71	2.95153
23.72	2.8854
23.73	2.90152
23.74	2.916
23.75	2.90416
23.76	2.90185
23.77	2.88508
23.78	2.9183
23.79	2.9512
23.8	2.95876
23.81	2.91435
23.82	2.92751
23.83	2.9183
23.84	2.90251
23.85	2.9433
23.86	2.92817
23.87	2.95876
23.88	2.93343
23.89	2.90383
23.9	2.91797
23.91	2.92422
23.92	2.93014
23.93	2.92981
23.94	2.90087
23.95	2.93376
23.96	2.90054
23.97	2.93771
23.98	2.91106
23.99	2.91304
24	2.92981
24.01	2.93541
24.02	2.92192
24.03	2.92225
24.04	2.90646
24.05	2.94659
24.06	2.9558
24.07	2.91337
24.08	2.91764
24.09	2.94001
24.1	2.93508
24.11	2.92192
24.12	2.91139
24.13	2.90514
24.14	2.9331
24.15	2.92192
24.16	2.88771
24.17	2.87751
24.18	2.94166
24.19	2.94495
24.2	2.916
24.21	2.90712
24.22	2.94231
24.23	2.93606
24.24	2.94791
24.25	2.93903
24.26	2.93968
24.27	2.90843
24.28	2.88573
24.29	2.9137
24.3	2.92587
24.31	2.90843
24.32	2.90383
24.33	2.91271
24.34	2.89626
24.35	2.90119
24.36	2.9058
24.37	2.92784
24.38	2.95087
24.39	2.89922
24.4	2.89856
24.41	2.89889
24.42	2.92587
24.43	2.88212
24.44	2.92652
24.45	2.90087
24.46	2.9058
24.47	2.91666
24.48	2.93113
24.49	2.91995
24.5	2.91435
24.51	2.90054
24.52	2.92949
24.53	2.92488
24.54	2.93968
24.55	2.89922
24.56	2.89988
24.57	2.89034
24.58	2.89626
24.59	2.90843
24.6	2.94166
24.61	2.91468
24.62	2.9081
24.63	2.93212
24.64	2.89264
24.65	2.8854
24.66	2.87619
24.67	2.92455
24.68	2.92291
24.69	2.88376
24.7	2.90942
24.71	2.94034
24.72	2.90975
24.73	2.92159
24.74	2.92159
24.75	2.88902
24.76	2.90876
24.77	2.90284
24.78	2.89823
24.79	2.92258
24.8	2.90613
24.81	2.92817
24.82	2.90416
24.83	2.91271
24.84	2.89692
24.85	2.89001
24.86	2.92751
24.87	2.91896
24.88	2.89264
24.89	2.90942
24.9	2.88935
24.91	2.88705
24.92	2.89001
24.93	2.92652
24.94	2.90481
24.95	2.92192
24.96	2.90712
24.97	2.88804
24.98	2.88869
24.99	2.91041
25	2.93047
25.01	2.91929
25.02	2.90909
25.03	2.92192
25.04	2.9183
25.05	2.93113
25.06	2.94133
25.07	2.92949
25.08	2.9081
25.09	2.91172
25.1	2.93343
25.11	2.93343
25.12	2.93672
25.13	2.92258
25.14	2.91501
25.15	2.92883
25.16	2.91435
25.17	2.92422
25.18	2.916
25.19	2.8956
25.2	2.94593
25.21	2.94429
25.22	2.90021
25.23	2.93837
25.24	2.96139
25.25	2.93146
25.26	2.88573
25.27	2.89659
25.28	2.88771
25.29	2.88277
25.3	2.90119
25.31	2.91041
25.32	2.92258
25.33	2.90975
25.34	2.90514
25.35	2.89166
25.36	2.87784
25.37	2.92587
25.38	2.941
25.39	2.89988
25.4	2.90745
25.41	2.91139
25.42	2.89725
25.43	2.9137
25.44	2.89133
25.45	2.87389
25.46	2.90975
25.47	2.9535
25.48	2.90251
25.49	2.94593
25.5	2.92159
25.51	2.91698
25.52	2.91501
25.53	2.93277
25.54	2.89823
25.55	2.89955
25.56	2.88869
25.57	2.88935
25.58	2.90843
25.59	2.92751
25.6	2.92159
25.61	2.90909
25.62	2.92126
25.63	2.89527
25.64	2.8956
25.65	2.92521
25.66	2.90152
25.67	2.87751
25.68	2.92587
25.69	2.92685
25.7	2.93475
25.71	2.92652
25.72	2.90383
25.73	2.8933
25.74	2.89133
25.75	2.90021
25.76	2.89297
25.77	2.90679
25.78	2.91764
25.79	2.91402
25.8	2.89922
25.81	2.93935
25.82	2.916
25.83	2.92422
25.84	2.86994
25.85	2.90481
25.86	2.93146
25.87	2.93639
25.88	2.91139
25.89	2.89396
25.9	2.89396
25.91	2.90317
25.92	2.8933
25.93	2.88442
25.94	2.89791
25.95	2.93047
25.96	2.90481
25.97	2.89922
25.98	2.89955
25.99	2.94199
26	2.94133
26.01	2.92258
26.02	2.88869
26.03	2.89791
26.04	2.9262
26.05	2.90975
26.06	2.89955
26.07	2.88508
26.08	2.93574
26.09	2.88244
26.1	2.92356
26.11	2.92521
26.12	2.95514
26.13	2.941
26.14	2.90119
26.15	2.91337
26.16	2.90679
26.17	2.93771
26.18	2.97028
26.19	2.9308
26.2	2.91896
26.21	2.91698
26.22	2.89659
26.23	2.90646
26.24	2.95712
26.25	2.91731
26.26	2.88869
26.27	2.88935
26.28	2.92291
26.29	2.93606
26.3	2.90185
26.31	2.92521
26.32	2.89955
26.33	2.91435
26.34	2.91402
26.35	2.91633
26.36	2.91205
26.37	2.88639
26.38	2.90317
26.39	2.93113
26.4	2.94034
26.41	2.92949
26.42	2.91172
26.43	2.91304
26.44	2.95416
26.45	2.90547
26.46	2.85514
26.47	2.91666
26.48	2.90481
26.49	2.91073
26.5	2.89659
26.51	2.88902
26.52	2.89856
26.53	2.92192
26.54	2.92652
26.55	2.91106
26.56	2.88672
26.57	2.89791
26.58	2.89494
26.59	2.89988
26.6	2.91337
26.61	2.92652
26.62	2.93672
26.63	2.9137
26.64	2.91106
26.65	2.90218
26.66	2.89823
26.67	2.916
26.68	2.88935
26.69	2.92258
26.7	2.88935
26.71	2.88508
26.72	2.8933
26.73	2.90087
26.74	2.92521
26.75	2.90712
26.76	2.86961
26.77	2.86896
26.78	2.89692
26.79	2.90777
26.8	2.90251
26.81	2.90843
26.82	2.90087
26.83	2.9183
26.84	2.91731
26.85	2.92455
26.86	2.89758
26.87	2.90712
26.88	2.92027
26.89	2.94955
26.9	2.90745
26.91	2.90383
26.92	2.9183
26.93	2.90317
26.94	2.90547
26.95	2.93968
26.96	2.91139
26.97	2.91501
26.98	2.91534
26.99	2.91995
27	2.9433
27.01	2.91863
27.02	2.90054
27.03	2.92521
27.04	2.94034
27.05	2.9262
27.06	2.9308
27.07	2.92389
27.08	2.91764
27.09	2.88837
27.1	2.91106
27.11	2.91797
27.12	2.94824
27.13	2.91764
27.14	2.89626
27.15	2.89955
27.16	2.92192
27.17	2.9331
27.18	2.91995
27.19	2.91402
27.2	2.88573
27.21	2.89593
27.22	2.94001
27.23	2.89922
27.24	2.91896
27.25	2.90843
27.26	2.9262
27.27	2.93935
27.28	2.93672
27.29	2.9137
27.3	2.90843
27.31	2.89725
27.32	2.89922
27.33	2.87751
27.34	2.8785
27.35	2.91633
27.36	2.90481
27.37	2.88968
27.38	2.89166
27.39	2.91008
27.4	2.90021
27.41	2.91205
27.42	2.92521
27.43	2.91435
27.44	2.91435
27.45	2.93935
27.46	2.90021
27.47	2.89659
27.48	2.91567
27.49	2.90152
27.5	2.92488
27.51	2.88902
27.52	2.86238
27.53	2.88343
27.54	2.93508
27.55	2.90909
27.56	2.93804
27.57	2.88639
27.58	2.90119
27.59	2.88376
27.6	2.86929
27.61	2.88902
27.62	2.93113
27.63	2.89462
27.64	2.88639
27.65	2.8831
27.66	2.93475
27.67	2.91402
27.68	2.94692
27.69	2.91304
27.7	2.88212
27.71	2.92817
27.72	2.91995
27.73	2.92883
27.74	2.92685
27.75	2.89593
27.76	2.90087
27.77	2.89527
27.78	2.90021
27.79	2.9137
27.8	2.91337
27.81	2.91041
27.82	2.90054
27.83	2.89955
27.84	2.90054
27.85	2.90745
27.86	2.92258
27.87	2.88409
27.88	2.88014
27.89	2.90087
27.9	2.88705
27.91	2.89758
27.92	2.87356
27.93	2.89725
27.94	2.88573
27.95	2.87323
27.96	2.86698
27.97	2.89955
27.98	2.92455
27.99	2.90777
28	2.89593
28.01	2.90975
28.02	2.90218
28.03	2.89494
28.04	2.89133
28.05	2.88935
28.06	2.90942
28.07	2.8808
28.08	2.87948
28.09	2.92027
28.1	2.90613
28.11	2.92324
28.12	2.92817
28.13	2.90054
28.14	2.91337
28.15	2.89297
28.16	2.92291
28.17	2.86172
28.18	2.89725
28.19	2.88705
28.2	2.88146
28.21	2.86896
28.22	2.87554
28.23	2.90383
28.24	2.90843
28.25	2.93179
28.26	2.88672
28.27	2.90317
28.28	2.92027
28.29	2.88573
28.3	2.86008
28.31	2.8785
28.32	2.92751
28.33	2.90843
28.34	2.90613
28.35	2.87981
28.36	2.91402
28.37	2.89692
28.38	2.90152
28.39	2.9081
28.4	2.90613
28.41	2.88179
28.42	2.91567
28.43	2.91337
28.44	2.91172
28.45	2.93639
28.46	2.91468
28.47	2.90448
28.48	2.89297
28.49	2.87554
28.5	2.90383
28.51	2.91435
28.52	2.88902
28.53	2.8933
28.54	2.88442
28.55	2.90416
28.56	2.8854
28.57	2.8831
28.58	2.88508
28.59	2.90218
28.6	2.89363
28.61	2.92751
28.62	2.92291
28.63	2.92093
28.64	2.88442
28.65	2.93376
28.66	2.90547
28.67	2.90317
28.68	2.87027
28.69	2.90218
28.7	2.916
28.71	2.91567
28.72	2.90251
28.73	2.91172
28.74	2.916
28.75	2.86731
28.76	2.90679
28.77	2.9035
28.78	2.88804
28.79	2.8854
28.8	2.90712
28.81	2.89067
28.82	2.92159
28.83	2.89922
28.84	2.90942
28.85	2.92488
28.86	2.90448
28.87	2.89856
28.88	2.87258
28.89	2.90613
28.9	2.92027
28.91	2.94297
28.92	2.94692
28.93	2.91172
28.94	2.87619
28.95	2.86665
28.96	2.89462
28.97	2.90218
28.98	2.89462
28.99	2.89494
29	2.91139
29.01	2.93935
29.02	2.91304
29.03	2.90383
29.04	2.90054
29.05	2.87915
29.06	2.91666
29.07	2.94791
29.08	2.90547
29.09	2.88639
29.1	2.91041
29.11	2.92356
29.12	2.89593
29.13	2.92422
29.14	2.91567
29.15	2.91962
29.16	2.92685
29.17	2.88047
29.18	2.89527
29.19	2.91731
29.2	2.92258
29.21	2.91633
29.22	2.9035
29.23	2.92356
29.24	2.93113
29.25	2.91041
29.26	2.90942
29.27	2.90152
29.28	2.90613
29.29	2.90876
29.3	2.91106
29.31	2.90416
29.32	2.89593
29.33	2.9035
29.34	2.91402
29.35	2.92883
29.36	2.88179
29.37	2.88968
29.38	2.90942
29.39	2.8956
29.4	2.93442
29.41	2.89988
29.42	2.91764
29.43	2.93771
29.44	2.91896
29.45	2.93047
29.46	2.90054
29.47	2.91567
29.48	2.91172
29.49	2.89659
29.5	2.90383
29.51	2.92916
29.52	2.91435
29.53	2.87126
29.54	2.87027
29.55	2.89494
29.56	2.89955
29.57	2.88475
29.58	2.89988
29.59	2.91534
29.6	2.91106
29.61	2.91435
29.62	2.92981
29.63	2.88606
29.64	2.91304
29.65	2.88639
29.66	2.91041
29.67	2.93277
29.68	2.89791
29.69	2.90646
29.7	2.9035
29.71	2.89626
29.72	2.89692
29.73	2.90745
29.74	2.91501
29.75	2.91106
29.76	2.90843
29.77	2.91106
29.78	2.89527
29.79	2.88475
29.8	2.87027
29.81	2.85119
29.82	2.90119
29.83	2.91205
29.84	2.90152
29.85	2.92455
29.86	2.92422
29.87	2.93738
29.88	2.88705
29.89	2.88738
29.9	2.92291
29.91	2.86402
29.92	2.88869
29.93	2.91567
29.94	2.89725
29.95	2.88738
29.96	2.93343
29.97	2.90712
29.98	2.90218
29.99	2.91863
30	2.88837
30.01	2.91205
30.02	2.9035
30.03	2.90152
30.04	2.89692
30.05	2.90745
30.06	2.89593
30.07	2.86073
30.08	2.84001
30.09	2.90251
30.1	2.92916
30.11	2.88146
30.12	2.87587
30.13	2.89429
30.14	2.86961
30.15	2.87126
30.16	2.88738
30.17	2.89791
30.18	2.88146
30.19	2.92389
30.2	2.90876
30.21	2.94199
30.22	2.90843
30.23	2.89462
30.24	2.85876
30.25	2.86402
30.26	2.87751
30.27	2.88639
30.28	2.89067
30.29	2.92455
30.3	2.89988
30.31	2.88508
30.32	2.891
30.33	2.89955
30.34	2.90054
30.35	2.91731
30.36	2.91962
30.37	2.87356
30.38	2.89198
30.39	2.9262
30.4	2.9137
30.41	2.87685
30.42	2.90119
30.43	2.92126
30.44	2.9331
30.45	2.891
30.46	2.85679
30.47	2.91337
30.48	2.90481
30.49	2.89725
30.5	2.89725
30.51	2.90942
30.52	2.8933
30.53	2.89988
30.54	2.91731
30.55	2.91041
30.56	2.89593
30.57	2.91172
30.58	2.88573
30.59	2.89725
30.6	2.90909
30.61	2.89955
30.62	2.91106
30.63	2.9035
30.64	2.90054
30.65	2.88935
30.66	2.87225
30.67	2.90152
30.68	2.87126
30.69	2.90021
30.7	2.91666
30.71	2.8933
30.72	2.88343
30.73	2.90745
30.74	2.89692
30.75	2.8854
30.76	2.88508
30.77	2.91304
30.78	2.90152
30.79	2.90416
30.8	2.90745
30.81	2.89067
30.82	2.92291
30.83	2.91205
30.84	2.87685
30.85	2.87356
30.86	2.88705
30.87	2.87981
30.88	2.89494
30.89	2.89758
30.9	2.90843
30.91	2.91139
30.92	2.91402
30.93	2.89067
30.94	2.85909
30.95	2.88771
30.96	2.90087
30.97	2.90185
30.98	2.91337
30.99	2.89264
31	2.89363
31.01	2.87587
31.02	2.88705
31.03	2.92521
31.04	2.91435
31.05	2.90613
31.06	2.85876
31.07	2.89494
31.08	2.9183
31.09	2.89198
31.1	2.90087
31.11	2.89231
31.12	2.90087
31.13	2.87225
31.14	2.88244
31.15	2.88771
31.16	2.87883
31.17	2.90119
31.18	2.88902
31.19	2.90054
31.2	2.87159
31.21	2.89988
31.22	2.89758
31.23	2.8831
31.24	2.88442
31.25	2.89988
31.26	2.92324
31.27	2.90054
31.28	2.89166
31.29	2.89198
31.3	2.92784
31.31	2.9035
31.32	2.92159
31.33	2.92192
31.34	2.88376
31.35	2.90547
31.36	2.90646
31.37	2.90975
31.38	2.91073
31.39	2.91501
31.4	2.91205
31.41	2.91698
31.42	2.88639
31.43	2.89725
31.44	2.90843
31.45	2.9035
31.46	2.87883
31.47	2.87619
31.48	2.88343
31.49	2.86369
31.5	2.88442
31.51	2.91106
31.52	2.87389
31.53	2.88376
31.54	2.90087
31.55	2.88573
31.56	2.88113
31.57	2.89363
31.58	2.90777
31.59	2.87883
31.6	2.85448
31.61	2.87159
31.62	2.86106
31.63	2.88771
31.64	2.88475
31.65	2.91238
31.66	2.89758
31.67	2.8956
31.68	2.90876
31.69	2.92324
31.7	2.89264
31.71	2.90679
31.72	2.90679
31.73	2.8933
31.74	2.9035
31.75	2.93047
31.76	2.88837
31.77	2.88047
31.78	2.88935
31.79	2.87915
31.8	2.88869
31.81	2.89462
31.82	2.88771
31.83	2.8456
31.84	2.89462
31.85	2.8956
31.86	2.91863
31.87	2.90876
31.88	2.84988
31.89	2.89462
31.9	2.87784
31.91	2.86435
31.92	2.90777
31.93	2.89823
31.94	2.86665
31.95	2.91139
31.96	2.88705
31.97	2.88376
31.98	2.90416
31.99	2.89067
32	2.88343
32.01	2.92159
32.02	2.90514
32.03	2.87422
32.04	2.87258
32.05	2.90251
32.06	2.86863
32.07	2.91501
32.08	2.91337
32.09	2.89527
32.1	2.88343
32.11	2.87784
32.12	2.88475
32.13	2.87718
32.14	2.87455
32.15	2.89166
32.16	2.93277
32.17	2.89725
32.18	2.87323
32.19	2.88409
32.2	2.86797
32.21	2.89823
32.22	2.87619
32.23	2.90613
32.24	2.87718
32.25	2.93409
32.26	2.91567
32.27	2.89659
32.28	2.91073
32.29	2.90054
32.3	2.94001
32.31	2.92192
32.32	2.86896
32.33	2.90909
32.34	2.87027
32.35	2.88409
32.36	2.89922
32.37	2.89889
32.38	2.88277
32.39	2.89494
32.4	2.89659
32.41	2.87323
32.42	2.90284
32.43	2.89166
32.44	2.89626
32.45	2.91172
32.46	2.88902
32.47	2.89527
32.48	2.89363
32.49	2.90777
32.5	2.92159
32.51	2.88409
32.52	2.90416
32.53	2.93179
32.54	2.90777
32.55	2.86797
32.56	2.90745
32.57	2.88113
32.58	2.92291
32.59	2.89791
32.6	2.88869
32.61	2.91435
32.62	2.89626
32.63	2.9137
32.64	2.91863
32.65	2.94363
32.66	2.89396
32.67	2.91304
32.68	2.89067
32.69	2.92258
32.7	2.91501
32.71	2.89593
32.72	2.89363
32.73	2.91304
32.74	2.87587
32.75	2.87027
32.76	2.89133
32.77	2.88771
32.78	2.8956
32.79	2.87619
32.8	2.90942
32.81	2.91896
32.82	2.88804
32.83	2.89692
32.84	2.91435
32.85	2.91304
32.86	2.91567
32.87	2.891
32.88	2.9035
32.89	2.8808
32.9	2.90416
32.91	2.92225
32.92	2.90646
32.93	2.90942
32.94	2.891
32.95	2.89593
32.96	2.93113
32.97	2.9433
32.98	2.89593
32.99	2.89396
33	2.91073
33.01	2.9285
33.02	2.91106
33.03	2.91106
33.04	2.91139
33.05	2.88869
33.06	2.89067
33.07	2.89823
33.08	2.891
33.09	2.91271
33.1	2.90152
33.11	2.88935
33.12	2.87422
33.13	2.8933
33.14	2.92356
33.15	2.90514
33.16	2.89297
33.17	2.88705
33.18	2.89823
33.19	2.90021
33.2	2.8854
33.21	2.89758
33.22	2.91929
33.23	2.93376
33.24	2.87915
33.25	2.86468
33.26	2.90284
33.27	2.91435
33.28	2.89758
33.29	2.89166
33.3	2.8831
33.31	2.88804
33.32	2.90909
33.33	2.91863
33.34	2.86994
33.35	2.88343
33.36	2.88014
33.37	2.93212
33.38	2.92718
33.39	2.92126
33.4	2.89856
33.41	2.88606
33.42	2.90942
33.43	2.88771
33.44	2.86961
33.45	2.88935
33.46	2.88277
33.47	2.90646
33.48	2.90547
33.49	2.90416
33.5	2.92324
33.51	2.94659
33.52	2.90843
33.53	2.86633
33.54	2.90777
33.55	2.9206
33.56	2.88244
33.57	2.91962
33.58	2.92916
33.59	2.90712
33.6	2.87685
33.61	2.90152
33.62	2.8956
33.63	2.89231
33.64	2.86929
33.65	2.90876
33.66	2.9081
33.67	2.8785
33.68	2.88244
33.69	2.90185
33.7	2.9262
33.71	2.92126
33.72	2.89593
33.73	2.89527
33.74	2.86961
33.75	2.85909
33.76	2.83113
33.77	2.88771
33.78	2.90218
33.79	2.91271
33.8	2.89363
33.81	2.87619
33.82	2.88014
33.83	2.88277
33.84	2.87619
33.85	2.88902
33.86	2.87883
33.87	2.87587
33.88	2.85251
33.89	2.89166
33.9	2.89264
33.91	2.88606
33.92	2.89429
33.93	2.91008
33.94	2.86764
33.95	2.88968
33.96	2.91139
33.97	2.9035
33.98	2.9035
33.99	2.89494
34	2.90942
34.01	2.90119
34.02	2.8433
34.03	2.88837
34.04	2.89527
34.05	2.89823
34.06	2.88376
34.07	2.87422
34.08	2.8933
34.09	2.87915
34.1	2.90317
34.11	2.89133
34.12	2.88738
34.13	2.88212
34.14	2.91501
34.15	2.90152
34.16	2.89001
34.17	2.90448
34.18	2.90679
34.19	2.87027
34.2	2.90152
34.21	2.90448
34.22	2.89692
34.23	2.88343
34.24	2.91501
34.25	2.88935
34.26	2.85547
34.27	2.89659
34.28	2.88179
34.29	2.89593
34.3	2.91698
34.31	2.90909
34.32	2.88902
34.33	2.89823
34.34	2.88968
34.35	2.91304
34.36	2.92521
34.37	2.91205
34.38	2.89725
34.39	2.8956
34.4	2.92817
34.41	2.88606
34.42	2.87126
34.43	2.88409
34.44	2.86994
34.45	2.87455
34.46	2.87685
34.47	2.90251
34.48	2.87258
34.49	2.85382
34.5	2.8785
34.51	2.88968
34.52	2.88935
34.53	2.89264
34.54	2.91008
34.55	2.90185
34.56	2.87685
34.57	2.88244
34.58	2.88179
34.59	2.8854
34.6	2.87027
34.61	2.89889
34.62	2.90909
34.63	2.89823
34.64	2.90876
34.65	2.92159
34.66	2.88902
34.67	2.90021
34.68	2.88738
34.69	2.89297
34.7	2.89692
34.71	2.88113
34.72	2.88837
34.73	2.89462
34.74	2.87587
34.75	2.88244
34.76	2.88475
34.77	2.90481
34.78	2.88639
34.79	2.87652
34.8	2.89692
34.81	2.89396
34.82	2.86929
34.83	2.92159
34.84	2.91073
34.85	2.86797
34.86	2.89527
34.87	2.916
34.88	2.89626
34.89	2.88639
34.9	2.91567
34.91	2.90514
34.92	2.91698
34.93	2.90087
34.94	2.90481
34.95	2.90152
34.96	2.88738
34.97	2.89791
34.98	2.88179
34.99	2.8808
35	2.90712
35.01	2.89494
35.02	2.916
35.03	2.93442
35.04	2.92324
35.05	2.90909
35.06	2.89955
35.07	2.92356
35.08	2.86633
35.09	2.84889
35.1	2.85021
35.11	2.88738
35.12	2.89889
35.13	2.89231
35.14	2.8933
35.15	2.86567
35.16	2.88014
35.17	2.89462
35.18	2.90646
35.19	2.90712
35.2	2.89396
35.21	2.88968
35.22	2.866
35.23	2.89791
35.24	2.90185
35.25	2.88606
35.26	2.92258
35.27	2.90909
35.28	2.91402
35.29	2.88475
35.3	2.90284
35.31	2.92225
35.32	2.90021
35.33	2.88705
35.34	2.90383
35.35	2.92784
35.36	2.8956
35.37	2.87718
35.38	2.90152
35.39	2.89494
35.4	2.92027
35.41	2.90843
35.42	2.91962
35.43	2.91041
35.44	2.89067
35.45	2.89955
35.46	2.9081
35.47	2.88705
35.48	2.88244
35.49	2.90317
35.5	2.89001
35.51	2.90152
35.52	2.87948
35.53	2.86369
35.54	2.87422
35.55	2.90975
35.56	2.9183
35.57	2.89462
35.58	2.91995
35.59	2.94199
35.6	2.92192
35.61	2.8558
35.62	2.8808
35.63	2.90481
35.64	2.90251
35.65	2.85909
35.66	2.86501
35.67	2.88968
35.68	2.88968
35.69	2.916
35.7	2.87192
35.71	2.90679
35.72	2.91666
35.73	2.92027
35.74	2.90777
35.75	2.90054
35.76	2.90547
35.77	2.86271
35.78	2.86665
35.79	2.9058
35.8	2.88672
35.81	2.90021
35.82	2.93639
35.83	2.88442
35.84	2.90021
35.85	2.87751
35.86	2.9285
35.87	2.87587
35.88	2.88244
35.89	2.92225
35.9	2.89823
35.91	2.8706
35.92	2.89001
35.93	2.87455
35.94	2.87258
35.95	2.92159
35.96	2.93113
35.97	2.87356
35.98	2.89725
35.99	2.891
36	2.88639
36.01	2.87619
36.02	2.86961
36.03	2.90218
36.04	2.90119
36.05	2.8854
36.06	2.9183
36.07	2.89889
36.08	2.89593
36.09	2.88705
36.1	2.89659
36.11	2.91698
36.12	2.89626
36.13	2.87521
36.14	2.86665
36.15	2.89133
36.16	2.89133
36.17	2.86008
36.18	2.89462
36.19	2.88409
36.2	2.8808
36.21	2.88968
36.22	2.90514
36.23	2.90383
36.24	2.87521
36.25	2.88573
36.26	2.90021
36.27	2.88212
36.28	2.86698
36.29	2.90975
36.3	2.90481
36.31	2.90975
36.32	2.9081
36.33	2.91337
36.34	2.92389
36.35	2.91995
36.36	2.88902
36.37	2.89363
36.38	2.88639
36.39	2.91337
36.4	2.88771
36.41	2.87159
36.42	2.88146
36.43	2.88869
36.44	2.88804
36.45	2.88508
36.46	2.86961
36.47	2.88409
36.48	2.89922
36.49	2.891
36.5	2.90547
36.51	2.91238
36.52	2.92718
36.53	2.90777
36.54	2.88409
36.55	2.89955
36.56	2.9058
36.57	2.89725
36.58	2.92422
36.59	2.89988
36.6	2.86863
36.61	2.89791
36.62	2.89988
36.63	2.91534
36.64	2.88508
36.65	2.89725
36.66	2.89264
36.67	2.89922
36.68	2.88902
36.69	2.88409
36.7	2.90021
36.71	2.89527
36.72	2.89264
36.73	2.86238
36.74	2.85382
36.75	2.8831
36.76	2.86271
36.77	2.8604
36.78	2.87981
36.79	2.92027
36.8	2.89593
36.81	2.866
36.82	2.88475
36.83	2.93343
36.84	2.91008
36.85	2.90481
36.86	2.90054
36.87	2.90021
36.88	2.91337
36.89	2.91106
36.9	2.89363
36.91	2.90942
36.92	2.89264
36.93	2.8558
36.94	2.89889
36.95	2.86205
36.96	2.8831
36.97	2.89988
36.98	2.89297
36.99	2.89823
37	2.88705
37.01	2.89494
37.02	2.91731
37.03	2.91863
37.04	2.89889
37.05	2.88771
37.06	2.86106
37.07	2.89166
37.08	2.88771
37.09	2.91501
37.1	2.90942
37.11	2.89429
37.12	2.86435
37.13	2.89198
37.14	2.86534
37.15	2.87718
37.16	2.87784
37.17	2.87817
37.18	2.88179
37.19	2.93014
37.2	2.88804
37.21	2.89034
37.22	2.83146
37.23	2.86369
37.24	2.89133
37.25	2.90021
37.26	2.90876
37.27	2.90383
37.28	2.87126
37.29	2.8785
37.3	2.90514
37.31	2.89626
37.32	2.90416
37.33	2.88573
37.34	2.86402
37.35	2.88014
37.36	2.92652
37.37	2.86139
37.38	2.90185
37.39	2.88014
37.4	2.86633
37.41	2.90843
37.42	2.8956
37.43	2.91698
37.44	2.91863
37.45	2.90218
37.46	2.89988
37.47	2.90317
37.48	2.89823
37.49	2.90745
37.5	2.916
37.51	2.90514
37.52	2.92324
37.53	2.89889
37.54	2.86764
37.55	2.91468
37.56	2.87751
37.57	2.90317
37.58	2.8854
37.59	2.88014
37.6	2.88804
37.61	2.89034
37.62	2.89988
37.63	2.89823
37.64	2.90284
37.65	2.89198
37.66	2.85054
37.67	2.88804
37.68	2.89264
37.69	2.90712
37.7	2.90021
37.71	2.88837
37.72	2.91797
37.73	2.88672
37.74	2.89462
37.75	2.86369
37.76	2.88869
37.77	2.89527
37.78	2.90284
37.79	2.88442
37.8	2.89034
37.81	2.90087
37.82	2.91106
37.83	2.89626
37.84	2.84692
37.85	2.86073
37.86	2.89823
37.87	2.8956
37.88	2.87192
37.89	2.86731
37.9	2.89527
37.91	2.9035
37.92	2.89297
37.93	2.90054
37.94	2.89889
37.95	2.89429
37.96	2.89001
37.97	2.87389
37.98	2.90054
37.99	2.90646
38	2.89692
38.01	2.90646
38.02	2.89955
38.03	2.90448
38.04	2.89692
38.05	2.89725
38.06	2.8831
38.07	2.9137
38.08	2.89462
38.09	2.85909
38.1	2.86929
38.11	2.89692
38.12	2.9285
38.13	2.87488
38.14	2.87027
38.15	2.88508
38.16	2.90251
38.17	2.89001
38.18	2.92389
38.19	2.87751
38.2	2.89067
38.21	2.89692
38.22	2.88837
38.23	2.84494
38.24	2.89593
38.25	2.90481
38.26	2.88343
38.27	2.89494
38.28	2.89659
38.29	2.88343
38.3	2.88771
38.31	2.90218
38.32	2.88902
38.33	2.90416
38.34	2.87521
38.35	2.88179
38.36	2.86534
38.37	2.87981
38.38	2.90481
38.39	2.92916
38.4	2.8831
38.41	2.89527
38.42	2.89527
38.43	2.87751
38.44	2.89922
38.45	2.91501
38.46	2.89231
38.47	2.89462
38.48	2.87718
38.49	2.88606
38.5	2.88212
38.51	2.86929
38.52	2.90152
38.53	2.90218
38.54	2.89593
38.55	2.90317
38.56	2.87389
38.57	2.87027
38.58	2.88014
38.59	2.90087
38.6	2.89462
38.61	2.91962
38.62	2.90843
38.63	2.89166
38.64	2.86961
38.65	2.89231
38.66	2.88212
38.67	2.90679
38.68	2.87784
38.69	2.88047
38.7	2.88968
38.71	2.88606
38.72	2.88672
38.73	2.92159
38.74	2.90909
38.75	2.84626
38.76	2.88738
38.77	2.90547
38.78	2.90251
38.79	2.88902
38.8	2.89297
38.81	2.9183
38.82	2.87784
38.83	2.88804
38.84	2.87948
38.85	2.89396
38.86	2.87258
38.87	2.87159
38.88	2.87323
38.89	2.88409
38.9	2.89231
38.91	2.90119
38.92	2.88277
38.93	2.87258
38.94	2.87981
38.95	2.87225
38.96	2.88014
38.97	2.89429
38.98	2.91205
38.99	2.9081
39	2.89297
39.01	2.86896
39.02	2.88409
39.03	2.89034
39.04	2.8933
39.05	2.89494
39.06	2.88738
39.07	2.91172
39.08	2.8683
39.09	2.86567
39.1	2.87948
39.11	2.87455
39.12	2.86205
39.13	2.89692
39.14	2.91139
39.15	2.89363
39.16	2.86468
39.17	2.86633
39.18	2.89988
39.19	2.88376
39.2	2.89758
39.21	2.88968
39.22	2.8683
39.23	2.88869
39.24	2.87619
39.25	2.84955
39.26	2.87652
39.27	2.89067
39.28	2.9035
39.29	2.91863
39.3	2.88738
39.31	2.86731
39.32	2.88179
39.33	2.90218
39.34	2.91896
39.35	2.90975
39.36	2.90087
39.37	2.91402
39.38	2.90514
39.39	2.87915
39.4	2.90152
39.41	2.89593
39.42	2.87126
39.43	2.88738
39.44	2.90087
39.45	2.88804
39.46	2.87323
39.47	2.87915
39.48	2.90547
39.49	2.916
39.5	2.91435
39.51	2.87554
39.52	2.86764
39.53	2.87948
39.54	2.87455
39.55	2.90383
39.56	2.91962
39.57	2.92258
39.58	2.8683
39.59	2.88244
39.6	2.90777
39.61	2.88804
39.62	2.90514
39.63	2.91863
39.64	2.89231
39.65	2.86238
39.66	2.89462
39.67	2.91797
39.68	2.91238
39.69	2.89988
39.7	2.88343
39.71	2.87619
39.72	2.86961
39.73	2.90777
39.74	2.88343
39.75	2.87126
39.76	2.91008
39.77	2.88935
39.78	2.9206
39.79	2.89758
39.8	2.90383
39.81	2.87323
39.82	2.88869
39.83	2.89001
39.84	2.87554
39.85	2.83836
39.86	2.87192
39.87	2.9035
39.88	2.88409
39.89	2.90218
39.9	2.90087
39.91	2.88277
39.92	2.87027
39.93	2.88606
39.94	2.8933
39.95	2.8706
39.96	2.90054
39.97	2.91666
39.98	2.87389
39.99	2.86073
40	2.89264
40.01	2.88968
40.02	2.87093
40.03	2.8729
40.04	2.88343
40.05	2.89725
40.06	2.89889
40.07	2.87718
40.08	2.88606
40.09	2.85777
40.1	2.8729
40.11	2.90613
40.12	2.88343
40.13	2.90021
40.14	2.90777
40.15	2.89922
40.16	2.8808
40.17	2.85448
40.18	2.89856
40.19	2.8785
40.2	2.89166
40.21	2.90218
40.22	2.89396
40.23	2.88146
40.24	2.8854
40.25	2.89626
40.26	2.88014
40.27	2.87784
40.28	2.8956
40.29	2.92685
40.3	2.90317
40.31	2.90054
40.32	2.91041
40.33	2.90119
40.34	2.89856
40.35	2.89034
40.36	2.87554
40.37	2.9081
40.38	2.89494
40.39	2.91238
40.4	2.88804
40.41	2.87915
40.42	2.86304
40.43	2.88738
40.44	2.90679
40.45	2.91139
40.46	2.89692
40.47	2.8956
40.48	2.90514
40.49	2.87718
40.5	2.87258
40.51	2.86501
40.52	2.90021
40.53	2.86797
40.54	2.87652
40.55	2.88146
40.56	2.91041
40.57	2.88606
40.58	2.90448
40.59	2.86172
40.6	2.88672
40.61	2.88837
40.62	2.89067
40.63	2.90646
40.64	2.88047
40.65	2.91041
40.66	2.91995
40.67	2.86698
40.68	2.88442
40.69	2.85843
40.7	2.89067
40.71	2.90317
40.72	2.89494
40.73	2.92652
40.74	2.90448
40.75	2.90383
40.76	2.90843
40.77	2.90942
40.78	2.90119
40.79	2.89791
40.8	2.88771
40.81	2.88935
40.82	2.91633
40.83	2.9183
40.84	2.88935
40.85	2.88475
40.86	2.90646
40.87	2.92784
40.88	2.91633
40.89	2.8933
40.9	2.89823
40.91	2.89955
40.92	2.87488
40.93	2.84396
40.94	2.87126
40.95	2.90547
40.96	2.90416
40.97	2.88837
40.98	2.90975
40.99	2.89823
41	2.8854
41.01	2.85218
41.02	2.86567
41.03	2.8956
41.04	2.89725
41.05	2.89034
41.06	2.88146
41.07	2.91008
41.08	2.8785
41.09	2.84659
41.1	2.89922
41.11	2.89527
41.12	2.90481
41.13	2.86633
41.14	2.85613
41.15	2.891
41.16	2.89527
41.17	2.87521
41.18	2.89166
41.19	2.87652
41.2	2.89889
41.21	2.89659
41.22	2.90054
41.23	2.90514
41.24	2.90481
41.25	2.88277
41.26	2.90119
41.27	2.92126
41.28	2.91501
41.29	2.89889
41.3	2.88146
41.31	2.89692
41.32	2.92356
41.33	2.88968
41.34	2.8808
41.35	2.87225
41.36	2.89264
41.37	2.90745
41.38	2.89725
41.39	2.8785
41.4	2.88047
41.41	2.87948
41.42	2.87554
41.43	2.8808
41.44	2.8831
41.45	2.86501
41.46	2.90942
41.47	2.90251
41.48	2.86567
41.49	2.85711
41.5	2.90185
41.51	2.92916
41.52	2.891
41.53	2.89429
41.54	2.93672
41.55	2.91008
41.56	2.90119
41.57	2.8785
41.58	2.89593
41.59	2.84593
41.6	2.8706
41.61	2.88705
41.62	2.85514
41.63	2.89922
41.64	2.89462
41.65	2.90712
41.66	2.91041
41.67	2.8831
41.68	2.91139
41.69	2.91041
41.7	2.88442
41.71	2.90218
41.72	2.8706
41.73	2.89133
41.74	2.89034
41.75	2.91008
41.76	2.88146
41.77	2.87554
41.78	2.8956
41.79	2.8956
41.8	2.90218
41.81	2.8956
41.82	2.88738
41.83	2.88113
41.84	2.90087
41.85	2.86468
41.86	2.88935
41.87	2.89823
41.88	2.90383
41.89	2.88606
41.9	2.90481
41.91	2.87258
41.92	2.90777
41.93	2.86961
41.94	2.86106
41.95	2.90054
41.96	2.89231
41.97	2.90613
41.98	2.88837
41.99	2.87784
42	2.89988
42.01	2.91073
42.02	2.87323
42.03	2.86336
42.04	2.85744
42.05	2.87323
42.06	2.91073
42.07	2.9035
42.08	2.88804
42.09	2.87718
42.1	2.89725
42.11	2.87652
42.12	2.87192
42.13	2.87422
42.14	2.8729
42.15	2.85284
42.16	2.8808
42.17	2.85942
42.18	2.90383
42.19	2.92554
42.2	2.89133
42.21	2.90152
42.22	2.91106
42.23	2.89363
42.24	2.8604
42.25	2.90679
42.26	2.90909
42.27	2.87619
42.28	2.90021
42.29	2.87192
42.3	2.86205
42.31	2.86534
42.32	2.88442
42.33	2.8854
42.34	2.88837
42.35	2.86369
42.36	2.90843
42.37	2.88212
42.38	2.86929
42.39	2.89462
42.4	2.90087
42.41	2.88672
42.42	2.90679
42.43	2.90054
42.44	2.87718
42.45	2.90119
42.46	2.90547
42.47	2.88376
42.48	2.89922
42.49	2.86929
42.5	2.89067
42.51	2.88179
42.52	2.89659
42.53	2.87652
42.54	2.87751
42.55	2.86534
42.56	2.88277
42.57	2.891
42.58	2.89692
42.59	2.85744
42.6	2.87356
42.61	2.89231
42.62	2.90218
42.63	2.9262
42.64	2.89758
42.65	2.88869
42.66	2.90087
42.67	2.88672
42.68	2.89593
42.69	2.87652
42.7	2.85152
42.71	2.87093
42.72	2.90646
42.73	2.90251
42.74	2.92389
42.75	2.91073
42.76	2.88047
42.77	2.88047
42.78	2.87093
42.79	2.87093
42.8	2.88113
42.81	2.87784
42.82	2.8581
42.83	2.88212
42.84	2.88804
42.85	2.87389
42.86	2.87126
42.87	2.89264
42.88	2.8831
42.89	2.89922
42.9	2.89856
42.91	2.87356
42.92	2.8933
42.93	2.88376
42.94	2.85942
42.95	2.8729
42.96	2.90876
42.97	2.9285
42.98	2.89692
42.99	2.89133
43	2.90679
43.01	2.87652
43.02	2.87554
43.03	2.86698
43.04	2.90975
43.05	2.90284
43.06	2.88672
43.07	2.89166
43.08	2.91666
43.09	2.9137
43.1	2.86534
43.11	2.87389
43.12	2.88146
43.13	2.87652
43.14	2.90152
43.15	2.86994
43.16	2.87488
43.17	2.87652
43.18	2.9137
43.19	2.9058
43.2	2.891
43.21	2.90054
43.22	2.8854
43.23	2.91567
43.24	2.92455
43.25	2.89527
43.26	2.90679
43.27	2.90942
43.28	2.87718
43.29	2.9035
43.3	2.89889
43.31	2.88804
43.32	2.8854
43.33	2.87521
43.34	2.87587
43.35	2.87751
43.36	2.88376
43.37	2.91402
43.38	2.8956
43.39	2.86238
43.4	2.90021
43.41	2.891
43.42	2.88804
43.43	2.87455
43.44	2.90284
43.45	2.90712
43.46	2.87981
43.47	2.86435
43.48	2.88869
43.49	2.8854
43.5	2.87883
43.51	2.86764
43.52	2.891
43.53	2.86698
43.54	2.86961
43.55	2.90613
43.56	2.89889
43.57	2.89363
43.58	2.89593
43.59	2.90876
43.6	2.8854
43.61	2.90119
43.62	2.91139
43.63	2.92784
43.64	2.89758
43.65	2.92389
43.66	2.90679
43.67	2.90876
43.68	2.90119
43.69	2.90745
43.7	2.89363
43.71	2.9081
43.72	2.88869
43.73	2.8854
43.74	2.90909
43.75	2.91304
43.76	2.91698
43.77	2.90876
43.78	2.88804
43.79	2.87718
43.8	2.86336
43.81	2.92192
43.82	2.87915
43.83	2.86435
43.84	2.8933
43.85	2.91468
43.86	2.89922
43.87	2.90284
43.88	2.87422
43.89	2.89593
43.9	2.88573
43.91	2.89264
43.92	2.88639
43.93	2.88738
43.94	2.90251
43.95	2.89725
43.96	2.90876
43.97	2.93277
43.98	2.91633
43.99	2.89791
44	2.89001
44.01	2.9183
44.02	2.91172
44.03	2.90613
44.04	2.85843
44.05	2.87192
44.06	2.93212
44.07	2.90843
44.08	2.90021
44.09	2.89593
44.1	2.92192
44.11	2.89363
44.12	2.90284
44.13	2.88902
44.14	2.88968
44.15	2.89166
44.16	2.89889
44.17	2.87126
44.18	2.87521
44.19	2.89034
44.2	2.88804
44.21	2.87587
44.22	2.86665
44.23	2.91863
44.24	2.9035
44.25	2.88343
44.26	2.88935
44.27	2.88179
44.28	2.91534
44.29	2.8683
44.3	2.87455
44.31	2.88475
44.32	2.88902
44.33	2.90777
44.34	2.91731
44.35	2.90942
44.36	2.91501
44.37	2.90547
44.38	2.90876
44.39	2.87422
44.4	2.87948
44.41	2.89133
44.42	2.89692
44.43	2.92356
44.44	2.88179
44.45	2.87159
44.46	2.89593
44.47	2.8854
44.48	2.91534
44.49	2.87915
44.5	2.89034
44.51	2.93574
44.52	2.92192
44.53	2.90087
44.54	2.90119
44.55	2.91073
44.56	2.90218
44.57	2.88935
44.58	2.88212
44.59	2.86304
44.6	2.89922
44.61	2.87126
44.62	2.90646
44.63	2.90416
44.64	2.88475
44.65	2.89462
44.66	2.87192
44.67	2.90876
44.68	2.92981
44.69	2.89725
44.7	2.86567
44.71	2.89133
44.72	2.88475
44.73	2.87126
44.74	2.89922
44.75	2.89725
44.76	2.89001
44.77	2.89856
44.78	2.89791
44.79	2.86468
44.8	2.8956
44.81	2.91731
44.82	2.89363
44.83	2.87784
44.84	2.8956
44.85	2.86468
44.86	2.88508
44.87	2.88771
44.88	2.90317
44.89	2.9206
44.9	2.90152
44.91	2.90317
44.92	2.90646
44.93	2.89791
44.94	2.85317
44.95	2.88244
44.96	2.9081
44.97	2.91106
44.98	2.8785
44.99	2.90251
45	2.91863
45.01	2.90613
45.02	2.90876
45.03	2.9058
45.04	2.91896
45.05	2.89429
45.06	2.90679
45.07	2.89396
45.08	2.87488
45.09	2.88508
45.1	2.86369
45.11	2.89133
45.12	2.86961
45.13	2.88968
45.14	2.89067
45.15	2.90448
45.16	2.91435
45.17	2.89034
45.18	2.8831
45.19	2.87521
45.2	2.88179
45.21	2.91896
45.22	2.89297
45.23	2.85448
45.24	2.87159
45.25	2.86402
45.26	2.88475
45.27	2.88244
45.28	2.87751
45.29	2.87948
45.3	2.84231
45.31	2.86567
45.32	2.88738
45.33	2.9035
45.34	2.90251
45.35	2.89198
45.36	2.89593
45.37	2.87718
45.38	2.90119
45.39	2.89034
45.4	2.9058
45.41	2.91106
45.42	2.86665
45.43	2.9035
45.44	2.90448
45.45	2.87915
45.46	2.91304
45.47	2.88639
45.48	2.91139
45.49	2.93047
45.5	2.90152
45.51	2.86961
45.52	2.93179
45.53	2.91205
45.54	2.88935
45.55	2.88409
45.56	2.89692
45.57	2.9183
45.58	2.94034
45.59	2.91008
45.6	2.88804
45.61	2.88442
45.62	2.8854
45.63	2.88902
45.64	2.91962
45.65	2.86369
45.66	2.88146
45.67	2.86896
45.68	2.88573
45.69	2.88212
45.7	2.8854
45.71	2.88804
45.72	2.87027
45.73	2.88277
45.74	2.88869
45.75	2.88771
45.76	2.841
45.77	2.88212
45.78	2.88606
45.79	2.89034
45.8	2.87718
45.81	2.89494
45.82	2.87784
45.83	2.87652
45.84	2.87356
45.85	2.91402
45.86	2.8808
45.87	2.90514
45.88	2.87817
45.89	2.89133
45.9	2.87883
45.91	2.87422
45.92	2.90514
45.93	2.87126
45.94	2.86929
45.95	2.88804
45.96	2.89692
45.97	2.91929
45.98	2.93541
45.99	2.92192
46	2.90284
46.01	2.90284
46.02	2.87652
46.03	2.87883
46.04	2.86106
46.05	2.90087
46.06	2.87751
46.07	2.88771
46.08	2.89856
46.09	2.8854
46.1	2.86929
46.11	2.86435
46.12	2.87751
46.13	2.90975
46.14	2.90975
46.15	2.89001
46.16	2.86731
46.17	2.87652
46.18	2.87323
46.19	2.89396
46.2	2.9035
46.21	2.89725
46.22	2.88212
46.23	2.87619
46.24	2.90777
46.25	2.92356
46.26	2.88804
46.27	2.90745
46.28	2.89593
46.29	2.87718
46.3	2.88047
46.31	2.87587
46.32	2.891
46.33	2.90317
46.34	2.8706
46.35	2.88277
46.36	2.90087
46.37	2.91501
46.38	2.89264
46.39	2.90284
46.4	2.89231
46.41	2.88442
46.42	2.91633
46.43	2.88837
46.44	2.93541
46.45	2.90284
46.46	2.87948
46.47	2.89396
46.48	2.88606
46.49	2.85876
46.5	2.8479
46.51	2.86929
46.52	2.8683
46.53	2.88442
46.54	2.88837
46.55	2.89001
46.56	2.8956
46.57	2.89494
46.58	2.90481
46.59	2.89593
46.6	2.8706
46.61	2.85382
46.62	2.87389
46.63	2.88738
46.64	2.90218
46.65	2.86961
46.66	2.87619
46.67	2.91764
46.68	2.90119
46.69	2.86698
46.7	2.88146
46.71	2.88902
46.72	2.88113
46.73	2.89626
46.74	2.90284
46.75	2.90119
46.76	2.90843
46.77	2.91698
46.78	2.85909
46.79	2.86567
46.8	2.87817
46.81	2.89494
46.82	2.89659
46.83	2.90218
46.84	2.91962
46.85	2.90284
46.86	2.90481
46.87	2.90777
46.88	2.88837
46.89	2.89725
46.9	2.87915
46.91	2.9081
46.92	2.87948
46.93	2.88902
46.94	2.90152
46.95	2.89166
46.96	2.89593
46.97	2.90843
46.98	2.91073
46.99	2.89198
47	2.89593
47.01	2.87258
47.02	2.90843
47.03	2.88146
47.04	2.89363
47.05	2.92652
47.06	2.87883
47.07	2.88475
47.08	2.85679
47.09	2.86863
47.1	2.8956
47.11	2.91073
47.12	2.89626
47.13	2.93738
47.14	2.87981
47.15	2.90448
47.16	2.87093
47.17	2.85218
47.18	2.87883
47.19	2.9081
47.2	2.91896
47.21	2.90087
47.22	2.88738
47.23	2.89133
47.24	2.90218
47.25	2.89791
47.26	2.92817
47.27	2.89198
47.28	2.87389
47.29	2.88146
47.3	2.89856
47.31	2.88277
47.32	2.90514
47.33	2.89363
47.34	2.91797
47.35	2.90745
47.36	2.891
47.37	2.8831
47.38	2.85744
47.39	2.86435
47.4	2.87455
47.41	2.91139
47.42	2.89462
47.43	2.92192
47.44	2.89758
47.45	2.8535
47.46	2.89429
47.47	2.91304
47.48	2.92159
47.49	2.87685
47.5	2.85876
47.51	2.88771
47.52	2.90152
47.53	2.87718
47.54	2.88014
47.55	2.89659
47.56	2.88672
47.57	2.89297
47.58	2.90317
47.59	2.88442
47.6	2.87817
47.61	2.88047
47.62	2.8581
47.63	2.8808
47.64	2.89758
47.65	2.89297
47.66	2.86994
47.67	2.90843
47.68	2.89889
47.69	2.90087
47.7	2.86863
47.71	2.88047
47.72	2.8831
47.73	2.91106
47.74	2.891
47.75	2.88639
47.76	2.89823
47.77	2.90416
47.78	2.90251
47.79	2.91402
47.8	2.92126
47.81	2.89791
47.82	2.89231
47.83	2.87488
47.84	2.90021
47.85	2.90876
47.86	2.86863
47.87	2.85646
47.88	2.88409
47.89	2.87422
47.9	2.89198
47.91	2.90251
47.92	2.88244
47.93	2.8854
47.94	2.90054
47.95	2.93179
47.96	2.87751
47.97	2.8956
47.98	2.89758
47.99	2.91008
48	2.87685
48.01	2.90021
48.02	2.92126
48.03	2.90284
48.04	2.89396
48.05	2.91337
48.06	2.89659
48.07	2.87718
48.08	2.89198
48.09	2.91995
48.1	2.89823
48.11	2.86304
48.12	2.91929
48.13	2.88771
48.14	2.8433
48.15	2.89429
48.16	2.91896
48.17	2.87915
48.18	2.90383
48.19	2.88343
48.2	2.90876
48.21	2.90777
48.22	2.90777
48.23	2.88376
48.24	2.89659
48.25	2.89363
48.26	2.91534
48.27	2.90416
48.28	2.88869
48.29	2.916
48.3	2.91008
48.31	2.91534
48.32	2.89264
48.33	2.91698
48.34	2.88804
48.35	2.8785
48.36	2.88705
48.37	2.89593
48.38	2.88804
48.39	2.86797
48.4	2.90613
48.41	2.89922
48.42	2.90185
48.43	2.8808
48.44	2.89922
48.45	2.90218
48.46	2.8956
48.47	2.88606
48.48	2.89231
48.49	2.90284
48.5	2.93146
48.51	2.91106
48.52	2.90975
48.53	2.90251
48.54	2.89034
48.55	2.86797
48.56	2.88244
48.57	2.86698
48.58	2.891
48.59	2.91337
48.6	2.90481
48.61	2.91698
48.62	2.89429
48.63	2.87883
48.64	2.891
48.65	2.89856
48.66	2.90843
48.67	2.90481
48.68	2.8933
48.69	2.93047
48.7	2.90054
48.71	2.91567
48.72	2.88146
48.73	2.90185
48.74	2.90383
48.75	2.85876
48.76	2.87619
48.77	2.88935
48.78	2.86534
48.79	2.89462
48.8	2.91567
48.81	2.91995
48.82	2.90712
48.83	2.91863
48.84	2.90119
48.85	2.86139
48.86	2.89001
48.87	2.91106
48.88	2.88902
48.89	2.8933
48.9	2.84692
48.91	2.87652
48.92	2.92488
48.93	2.88508
48.94	2.87521
48.95	2.87883
48.96	2.89462
48.97	2.91139
48.98	2.9308
48.99	2.891
49	2.86534
49.01	2.88277
49.02	2.91402
49.03	2.90152
49.04	2.90777
49.05	2.90613
49.06	2.88409
49.07	2.89166
49.08	2.916
49.09	2.89593
49.1	2.87356
49.11	2.86172
49.12	2.88738
49.13	2.92324
49.14	2.90843
49.15	2.92554
49.16	2.9137
49.17	2.93277
49.18	2.90514
49.19	2.89922
49.2	2.88343
49.21	2.89264
49.22	2.90416
49.23	2.90712
49.24	2.88014
49.25	2.89494
49.26	2.88409
49.27	2.8785
49.28	2.94593
49.29	2.89396
49.3	2.89034
49.31	2.88475
49.32	2.90975
49.33	2.916
49.34	2.94593
49.35	2.91929
49.36	2.89363
49.37	2.87554
49.38	2.89922
49.39	2.86336
49.4	2.88343
49.41	2.9058
49.42	2.87225
49.43	2.86172
49.44	2.87817
49.45	2.90942
49.46	2.90185
49.47	2.90876
49.48	2.89166
49.49	2.89231
49.5	2.88179
49.51	2.891
49.52	2.87093
49.53	2.91041
49.54	2.87948
49.55	2.89692
49.56	2.88705
49.57	2.91995
49.58	2.88738
49.59	2.85975
49.6	2.88606
49.61	2.91501
49.62	2.87751
49.63	2.86106
49.64	2.91731
49.65	2.90514
49.66	2.89363
49.67	2.87981
49.68	2.93475
49.69	2.90251
49.7	2.83475
49.71	2.91172
49.72	2.89692
49.73	2.88672
49.74	2.90843
49.75	2.89198
49.76	2.88146
49.77	2.87521
49.78	2.88409
49.79	2.87915
49.8	2.89593
49.81	2.88573
49.82	2.92159
49.83	2.90054
49.84	2.89791
49.85	2.91468
49.86	2.88113
49.87	2.87948
49.88	2.9081
49.89	2.87323
49.9	2.86106
49.91	2.87126
49.92	2.8933
49.93	2.88606
49.94	2.8785
49.95	2.89198
49.96	2.90843
49.97	2.9058
49.98	2.88343
49.99	2.86567
50	2.90909
