"BIO-KINE ASCII FILE"
"_COMMENT"	"MOS-500 Spectrometer"
"_COMMENT"	"Kinetics measurement"
"_COMMENT"	"Y Unit : Volt,  X Unit : s"
"_COMMENT"	"Excitation wavelength : 380 nm"
"_COMMENT"	"Fentes bandwidth =  1 nm"
"_COMMENT"	"HV= 1000V"
"_COMMENT"	"Timebase  1 =  .01 s   5001 pts"
"_SFM"	"SFM-400 /S  Advanced mode"
"_SFM"	"Ratio : S1: 2.5, S2: 0, S3: 0, S4: 1"
"_SFM"	"Content : S1: , S2: , S3: , S4:"
"_SFM"	"Concentration : S1: , S2: , S3: , S4:"
"_SFM"	"Total volume : 209 µl  Flow : 3.5 mL/s"
"_SFM"	"Acquisition start :  10 ms before stop"
"_SFM"	"cuve=FC-15, s1=10 ml , s2=10 ml , s3=10 ml , s4=1.9 ml"
"_UNITX"	"s"
"_UNITY"	"Volt"
"_DELTAX"	0
"_DATA"
1e-300	2.98113
0.01	2.97751
0.02	2.95449
0.03	3.03673
0.04	3.06732
0.05	3.11568
0.06	3.09265
0.07	3.11798
0.08	3.16173
0.09	3.15351
0.1	3.15219
0.11	3.1693
0.12	3.21634
0.13	3.22818
0.14	3.21107
0.15	3.24397
0.16	3.23903
0.17	3.22259
0.18	3.20778
0.19	3.22982
0.2	3.20778
0.21	3.22489
0.22	3.21042
0.23	3.22456
0.24	3.21074
0.25	3.20778
0.26	3.22653
0.27	3.23838
0.28	3.1887
0.29	3.2193
0.3	3.242
0.31	3.28575
0.32	3.25154
0.33	3.21568
0.34	3.2443
0.35	3.21338
0.36	3.19199
0.37	3.19528
0.38	3.20318
0.39	3.22094
0.4	3.24726
0.41	3.23311
0.42	3.23476
0.43	3.22851
0.44	3.21634
0.45	3.2091
0.46	3.20088
0.47	3.21469
0.48	3.23377
0.49	3.22851
0.5	3.21897
0.51	3.20745
0.52	3.22818
0.53	3.22259
0.54	3.23081
0.55	3.267
0.56	3.20778
0.57	3.20581
0.58	3.19528
0.59	3.19956
0.6	3.20384
0.61	3.17653
0.62	3.17094
0.63	3.18081
0.64	3.20186
0.65	3.2466
0.66	3.24068
0.67	3.24726
0.68	3.21371
0.69	3.21634
0.7	3.22785
0.71	3.22785
0.72	3.20022
0.73	3.20614
0.74	3.24298
0.75	3.20581
0.76	3.18015
0.77	3.19101
0.78	3.19134
0.79	3.18015
0.8	3.1943
0.81	3.19792
0.82	3.21272
0.83	3.20318
0.84	3.18147
0.85	3.18541
0.86	3.21239
0.87	3.22456
0.88	3.20219
0.89	3.19495
0.9	3.20614
0.91	3.2091
0.92	3.17193
0.93	3.21338
0.94	3.22456
0.95	3.19265
0.96	3.21305
0.97	3.18147
0.98	3.19693
0.99	3.20745
1	3.20548
1.01	3.21963
1.02	3.22884
1.03	3.19528
1.04	3.17193
1.05	3.19298
1.06	3.16995
1.07	3.16634
1.08	3.19397
1.09	3.21206
1.1	3.1693
1.11	3.19166
1.12	3.18739
1.13	3.18081
1.14	3.15811
1.15	3.17686
1.16	3.19364
1.17	3.17949
1.18	3.19528
1.19	3.20384
1.2	3.20844
1.21	3.23081
1.22	3.18114
1.23	3.19857
1.24	3.1864
1.25	3.19199
1.26	3.15614
1.27	3.18838
1.28	3.1943
1.29	3.18903
1.3	3.16962
1.31	3.19265
1.32	3.18739
1.33	3.15877
1.34	3.18772
1.35	3.21667
1.36	3.20252
1.37	3.19594
1.38	3.17489
1.39	3.16666
1.4	3.16074
1.41	3.17587
1.42	3.20351
1.43	3.21601
1.44	3.18607
1.45	3.16535
1.46	3.18838
1.47	3.20877
1.48	3.1818
1.49	3.17752
1.5	3.18739
1.51	3.22127
1.52	3.17949
1.53	3.15548
1.54	3.1716
1.55	3.21338
1.56	3.18509
1.57	3.17324
1.58	3.15976
1.59	3.15745
1.6	3.20745
1.61	3.18607
1.62	3.19166
1.63	3.17587
1.64	3.17226
1.65	3.18048
1.66	3.17489
1.67	3.21272
1.68	3.2068
1.69	3.20219
1.7	3.17456
1.71	3.17259
1.72	3.1591
1.73	3.1614
1.74	3.17719
1.75	3.20581
1.76	3.15252
1.77	3.18344
1.78	3.17489
1.79	3.13936
1.8	3.16239
1.81	3.18574
1.82	3.17028
1.83	3.20581
1.84	3.20844
1.85	3.17555
1.86	3.15285
1.87	3.15614
1.88	3.17851
1.89	3.15515
1.9	3.16634
1.91	3.18344
1.92	3.14726
1.93	3.17357
1.94	3.17522
1.95	3.18476
1.96	3.20548
1.97	3.20186
1.98	3.1512
1.99	3.17423
2	3.16995
2.01	3.18081
2.02	3.15745
2.03	3.15778
2.04	3.15285
2.05	3.18015
2.06	3.13673
2.07	3.13015
2.08	3.1762
2.09	3.17028
2.1	3.15548
2.11	3.15548
2.12	3.1466
2.13	3.1739
2.14	3.12686
2.15	3.15449
2.16	3.17061
2.17	3.18048
2.18	3.14561
2.19	3.14824
2.2	3.15515
2.21	3.12916
2.22	3.14462
2.23	3.13772
2.24	3.16798
2.25	3.15087
2.26	3.15844
2.27	3.14133
2.28	3.15186
2.29	3.12324
2.3	3.13772
2.31	3.16601
2.32	3.17785
2.33	3.15351
2.34	3.15647
2.35	3.15219
2.36	3.16699
2.37	3.16535
2.38	3.14331
2.39	3.15087
2.4	3.16305
2.41	3.15252
2.42	3.1716
2.43	3.18903
2.44	3.20713
2.45	3.1387
2.46	3.14758
2.47	3.20088
2.48	3.15581
2.49	3.16765
2.5	3.20219
2.51	3.15449
2.52	3.13837
2.53	3.11929
2.54	3.14133
2.55	3.14495
2.56	3.15844
2.57	3.16798
2.58	3.15416
2.59	3.13969
2.6	3.15943
2.61	3.15745
2.62	3.17127
2.63	3.15844
2.64	3.14627
2.65	3.14298
2.66	3.17489
2.67	3.14199
2.68	3.10844
2.69	3.16436
2.7	3.17193
2.71	3.12785
2.72	3.1239
2.73	3.11239
2.74	3.16074
2.75	3.17851
2.76	3.1489
2.77	3.15055
2.78	3.18476
2.79	3.1387
2.8	3.12982
2.81	3.12982
2.82	3.13837
2.83	3.14101
2.84	3.12883
2.85	3.11304
2.86	3.14331
2.87	3.14528
2.88	3.17686
2.89	3.14166
2.9	3.14199
2.91	3.13706
2.92	3.11995
2.93	3.1114
2.94	3.12982
2.95	3.09989
2.96	3.09989
2.97	3.16337
2.98	3.14561
2.99	3.15581
3	3.15219
3.01	3.10844
3.02	3.15778
3.03	3.15351
3.04	3.11666
3.05	3.1216
3.06	3.15318
3.07	3.10252
3.08	3.11436
3.09	3.15745
3.1	3.10745
3.11	3.11436
3.12	3.11831
3.13	3.11666
3.14	3.15022
3.15	3.15745
3.16	3.13607
3.17	3.13179
3.18	3.14035
3.19	3.1341
3.2	3.14495
3.21	3.15285
3.22	3.1364
3.23	3.12489
3.24	3.11666
3.25	3.15778
3.26	3.14199
3.27	3.16469
3.28	3.14693
3.29	3.12949
3.3	3.1091
3.31	3.14923
3.32	3.12225
3.33	3.12324
3.34	3.13607
3.35	3.16568
3.36	3.09824
3.37	3.11271
3.38	3.11699
3.39	3.116
3.4	3.12061
3.41	3.13344
3.42	3.12653
3.43	3.13147
3.44	3.09035
3.45	3.09627
3.46	3.12883
3.47	3.13311
3.48	3.10975
3.49	3.12982
3.5	3.11929
3.51	3.11304
3.52	3.10252
3.53	3.11732
3.54	3.1341
3.55	3.11765
3.56	3.11732
3.57	3.13607
3.58	3.13903
3.59	3.09528
3.6	3.12554
3.61	3.08936
3.62	3.14331
3.63	3.14528
3.64	3.10449
3.65	3.09429
3.66	3.10021
3.67	3.09199
3.68	3.12949
3.69	3.11271
3.7	3.10087
3.71	3.10712
3.72	3.14462
3.73	3.10844
3.74	3.0489
3.75	3.11008
3.76	3.12522
3.77	3.13673
3.78	3.10581
3.79	3.09396
3.8	3.12653
3.81	3.14528
3.82	3.14101
3.83	3.09298
3.84	3.10383
3.85	3.11403
3.86	3.13344
3.87	3.10021
3.88	3.11436
3.89	3.11864
3.9	3.13081
3.91	3.1137
3.92	3.12094
3.93	3.09857
3.94	3.10054
3.95	3.13179
3.96	3.12357
3.97	3.13081
3.98	3.11107
3.99	3.10778
4	3.10548
4.01	3.13311
4.02	3.11239
4.03	3.1114
4.04	3.08146
4.05	3.08278
4.06	3.11798
4.07	3.12587
4.08	3.10449
4.09	3.08179
4.1	3.10646
4.11	3.091
4.12	3.0739
4.13	3.10416
4.14	3.10646
4.15	3.09923
4.16	3.08015
4.17	3.11535
4.18	3.11239
4.19	3.11831
4.2	3.12949
4.21	3.12258
4.22	3.09232
4.23	3.06962
4.24	3.08969
4.25	3.10877
4.26	3.09199
4.27	3.10449
4.28	3.10745
4.29	3.09528
4.3	3.1035
4.31	3.09692
4.32	3.11666
4.33	3.08475
4.34	3.05778
4.35	3.07291
4.36	3.09627
4.37	3.10153
4.38	3.09331
4.39	3.1364
4.4	3.08804
4.41	3.06666
4.42	3.09035
4.43	3.1091
4.44	3.09857
4.45	3.12456
4.46	3.10877
4.47	3.09495
4.48	3.11666
4.49	3.11864
4.5	3.06765
4.51	3.09265
4.52	3.10252
4.53	3.1387
4.54	3.07785
4.55	3.07423
4.56	3.07587
4.57	3.07423
4.58	3.0989
4.59	3.10712
4.6	3.09462
4.61	3.0887
4.62	3.11732
4.63	3.11107
4.64	3.06929
4.65	3.09298
4.66	3.10021
4.67	3.1137
4.68	3.11633
4.69	3.10318
4.7	3.10087
4.71	3.07982
4.72	3.11304
4.73	3.116
4.74	3.0762
4.75	3.10548
4.76	3.06995
4.77	3.10646
4.78	3.10778
4.79	3.09495
4.8	3.08475
4.81	3.08936
4.82	3.12818
4.83	3.09002
4.84	3.10778
4.85	3.08212
4.86	3.06502
4.87	3.07225
4.88	3.08179
4.89	3.13344
4.9	3.10449
4.91	3.07785
4.92	3.05975
4.93	3.09331
4.94	3.10054
4.95	3.0716
4.96	3.10778
4.97	3.09528
4.98	3.10745
4.99	3.08739
5	3.11304
5.01	3.09824
5.02	3.08607
5.03	3.05416
5.04	3.04791
5.05	3.08212
5.06	3.0739
5.07	3.10087
5.08	3.11436
5.09	3.11535
5.1	3.11502
5.11	3.10482
5.12	3.09989
5.13	3.07785
5.14	3.10679
5.15	3.07061
5.16	3.10614
5.17	3.07192
5.18	3.11239
5.19	3.0966
5.2	3.08903
5.21	3.09232
5.22	3.06831
5.23	3.07785
5.24	3.07949
5.25	3.07456
5.26	3.09133
5.27	3.06765
5.28	3.08804
5.29	3.07949
5.3	3.09166
5.31	3.1012
5.32	3.08146
5.33	3.11929
5.34	3.07423
5.35	3.06074
5.36	3.0966
5.37	3.07028
5.38	3.09758
5.39	3.11897
5.4	3.1137
5.41	3.05778
5.42	3.06699
5.43	3.07883
5.44	3.08607
5.45	3.09956
5.46	3.08541
5.47	3.0841
5.48	3.08442
5.49	3.11271
5.5	3.06732
5.51	3.06666
5.52	3.07028
5.53	3.09166
5.54	3.10482
5.55	3.07686
5.56	3.08015
5.57	3.08673
5.58	3.0864
5.59	3.10449
5.6	3.13245
5.61	3.07719
5.62	3.03673
5.63	3.07324
5.64	3.07357
5.65	3.07785
5.66	3.05745
5.67	3.05284
5.68	3.05284
5.69	3.08673
5.7	3.08607
5.71	3.06041
5.72	3.0535
5.73	3.08541
5.74	3.09791
5.75	3.08377
5.76	3.08278
5.77	3.11337
5.78	3.07883
5.79	3.08607
5.8	3.11271
5.81	3.09725
5.82	3.0716
5.83	3.07192
5.84	3.06041
5.85	3.05153
5.86	3.06929
5.87	3.06074
5.88	3.05811
5.89	3.07423
5.9	3.0841
5.91	3.07324
5.92	3.07488
5.93	3.07488
5.94	3.1035
5.95	3.10285
5.96	3.06337
5.97	3.06699
5.98	3.08903
5.99	3.10943
6	3.07456
6.01	3.07521
6.02	3.09627
6.03	3.07456
6.04	3.08048
6.05	3.06107
6.06	3.06074
6.07	3.05909
6.08	3.0387
6.09	3.06074
6.1	3.06567
6.11	3.04232
6.12	3.07653
6.13	3.07094
6.14	3.0762
6.15	3.07521
6.16	3.05186
6.17	3.07094
6.18	3.06962
6.19	3.06074
6.2	3.0785
6.21	3.05909
6.22	3.04725
6.23	3.09561
6.24	3.09067
6.25	3.07883
6.26	3.06074
6.27	3.05646
6.28	3.03113
6.29	3.03903
6.3	3.0433
6.31	3.06502
6.32	3.02324
6.33	3.0285
6.34	3.03541
6.35	3.05745
6.36	3.08015
6.37	3.08508
6.38	3.03508
6.39	3.04627
6.4	3.07752
6.41	3.05219
6.42	3.0637
6.43	3.07061
6.44	3.07291
6.45	3.08771
6.46	3.07521
6.47	3.06337
6.48	3.05679
6.49	3.06765
6.5	3.08048
6.51	3.08739
6.52	3.09199
6.53	3.05646
6.54	3.04725
6.55	3.0489
6.56	3.06107
6.57	3.04133
6.58	3.08508
6.59	3.06798
6.6	3.0387
6.61	3.03771
6.62	3.03212
6.63	3.05416
6.64	3.03607
6.65	3.05877
6.66	3.07423
6.67	3.05054
6.68	3.06403
6.69	3.08936
6.7	3.07225
6.71	3.04627
6.72	3.05745
6.73	3.04363
6.74	3.04232
6.75	3.04627
6.76	3.04528
6.77	3.05284
6.78	3.06304
6.79	3.066
6.8	3.03936
6.81	3.0512
6.82	3.05219
6.83	3.05581
6.84	3.0535
6.85	3.0285
6.86	3.03245
6.87	3.05153
6.88	3.05219
6.89	3.041
6.9	3.09265
6.91	3.07785
6.92	3.02949
6.93	3.04133
6.94	3.03376
6.95	3.06699
6.96	3.09824
6.97	3.06699
6.98	3.04495
6.99	3.05416
7	3.05877
7.01	3.10021
7.02	3.06074
7.03	3.04627
7.04	3.07686
7.05	3.07521
7.06	3.07028
7.07	3.02653
7.08	3.03837
7.09	3.03048
7.1	3.03837
7.11	3.06633
7.12	3.10482
7.13	3.07423
7.14	3.04725
7.15	3.07488
7.16	3.0739
7.17	3.07094
7.18	3.03409
7.19	3.04791
7.2	3.05548
7.21	3.05844
7.22	3.0489
7.23	3.04034
7.24	3.07949
7.25	3.04692
7.26	3.03508
7.27	3.03837
7.28	2.99692
7.29	3.03903
7.3	3.06403
7.31	3.02587
7.32	3.03245
7.33	3.06403
7.34	3.03804
7.35	3.04396
7.36	3.02324
7.37	3.07785
7.38	3.00909
7.39	3.0364
7.4	3.04429
7.41	3.04396
7.42	3.02258
7.43	3.06666
7.44	3.05778
7.45	3.05679
7.46	3.06896
7.47	3.05548
7.48	3.04791
7.49	3.0489
7.5	3.05975
7.51	3.066
7.52	3.06304
7.53	3.05021
7.54	3.05317
7.55	3.06074
7.56	3.09298
7.57	3.06896
7.58	3.0535
7.59	3.05054
7.6	3.03048
7.61	2.99857
7.62	3.04298
7.63	3.02324
7.64	3.08245
7.65	3.03344
7.66	2.98804
7.67	3.04298
7.68	3.06271
7.69	3.06107
7.7	3.01436
7.71	3.01929
7.72	3.05679
7.73	3.05745
7.74	3.07752
7.75	3.07521
7.76	3.01041
7.77	3.01765
7.78	3.01534
7.79	3.0364
7.8	3.04923
7.81	3.01436
7.82	3.01699
7.83	3.05548
7.84	3.05317
7.85	3.07127
7.86	3.05252
7.87	3.0739
7.88	3.03541
7.89	3.01008
7.9	3.06732
7.91	3.08673
7.92	3.04758
7.93	3.02357
7.94	3.04298
7.95	3.03804
7.96	3.03738
7.97	3.04199
7.98	3.02949
7.99	3.02126
8	3.03409
8.01	3.03804
8.02	3.02225
8.03	3.02686
8.04	3.03015
8.05	3.01995
8.06	3.02784
8.07	3.03475
8.08	3.05383
8.09	3.04561
8.1	3.04594
8.11	3.02784
8.12	3.04955
8.13	3.02225
8.14	3.00186
8.15	2.98804
8.16	3.04034
8.17	3.04955
8.18	3.01469
8.19	3.02686
8.2	3.03969
8.21	3.03376
8.22	2.99922
8.23	3.03015
8.24	3.03837
8.25	3.0262
8.26	3.03673
8.27	3.01337
8.28	3.05021
8.29	3.02159
8.3	3.0614
8.31	3.04594
8.32	3.02028
8.33	3.00811
8.34	3.03376
8.35	3.04232
8.36	3.06502
8.37	3.00909
8.38	3.04265
8.39	3.03804
8.4	3.0308
8.41	3.04199
8.42	3.04166
8.43	3.02258
8.44	3.00844
8.45	3.0489
8.46	3.00745
8.47	3.02258
8.48	3.04659
8.49	3.02192
8.5	3.03903
8.51	3.04199
8.52	3.00021
8.53	3.01107
8.54	3.02028
8.55	3.03705
8.56	3.05021
8.57	3.05252
8.58	3.03278
8.59	3.04363
8.6	3.05844
8.61	3.05317
8.62	3.05581
8.63	3.01501
8.64	3.00844
8.65	3.03673
8.66	3.00515
8.67	2.98607
8.68	3.0387
8.69	3.05679
8.7	3.03179
8.71	3.03607
8.72	3.03212
8.73	3.03705
8.74	3.01666
8.75	3.00876
8.76	3.02949
8.77	3.00975
8.78	3.00909
8.79	3.03146
8.8	3.05383
8.81	3.00021
8.82	3.02028
8.83	3.0285
8.84	3.02258
8.85	3.0489
8.86	3.01436
8.87	3.02192
8.88	3.03015
8.89	3.01798
8.9	3.01041
8.91	3.02061
8.92	3.01896
8.93	3.0035
8.94	3.00087
8.95	3.03245
8.96	3.00844
8.97	3.05087
8.98	3.03969
8.99	3.01436
9	3.00449
9.01	3.01995
9.02	3.03738
9.03	3.02126
9.04	3.041
9.05	3.0137
9.06	3.00712
9.07	2.99955
9.08	3.00909
9.09	3.04659
9.1	3.03245
9.11	3.01337
9.12	3.0137
9.13	3.05581
9.14	3.02423
9.15	3.0137
9.16	3.03311
9.17	3.01205
9.18	3.03376
9.19	3.02784
9.2	3.03673
9.21	3.01107
9.22	3.05515
9.23	3.0239
9.24	2.9808
9.25	3.0058
9.26	3.04627
9.27	3.0364
9.28	3.01041
9.29	3.0035
9.3	3.00219
9.31	3.02982
9.32	3.01699
9.33	3.0308
9.34	2.99988
9.35	3.02751
9.36	3.03771
9.37	3.04265
9.38	2.98804
9.39	2.99955
9.4	3.02159
9.41	3.016
9.42	3.01798
9.43	2.97982
9.44	3.00778
9.45	3.00811
9.46	2.99955
9.47	3.01567
9.48	3.0114
9.49	3.00613
9.5	3.01863
9.51	3.0012
9.52	2.97258
9.53	3.00317
9.54	3.00876
9.55	3.00482
9.56	3.00811
9.57	3.05909
9.58	3.03179
9.59	3.0058
9.6	2.99955
9.61	3.00383
9.62	3.00745
9.63	3.03311
9.64	3.04067
9.65	3.04429
9.66	3.03311
9.67	3.02883
9.68	3.02258
9.69	3.00745
9.7	3.00778
9.71	2.99824
9.72	3.01962
9.73	3.03969
9.74	3.00482
9.75	3.04166
9.76	3.02949
9.77	3.03837
9.78	3.01205
9.79	3.01403
9.8	3.00778
9.81	3.05679
9.82	2.99429
9.83	3.03442
9.84	3.0239
9.85	3.01436
9.86	3.03146
9.87	3.0433
9.88	3.01501
9.89	3.016
9.9	3.02094
9.91	2.99955
9.92	3.0183
9.93	2.9989
9.94	3.02751
9.95	3.0012
9.96	2.98541
9.97	2.96732
9.98	2.99232
9.99	3.01041
10	3.01008
10.01	3.01008
10.02	2.99955
10.03	2.99659
10.04	2.98278
10.05	3.01765
10.06	3.01436
10.07	2.97751
10.08	3.0035
10.09	3.03837
10.1	3.01699
10.11	2.99462
10.12	3.02455
10.13	3.00975
10.14	2.99725
10.15	3.01995
10.16	3.02719
10.17	3.01962
10.18	3.00087
10.19	2.99001
10.2	2.9864
10.21	3.03113
10.22	3.02751
10.23	3.04199
10.24	3.01929
10.25	3.02159
10.26	2.99922
10.27	3.05317
10.28	3.0239
10.29	3.02126
10.3	3.01304
10.31	3.00811
10.32	3.02455
10.33	3.01469
10.34	3.00054
10.35	2.95087
10.36	3.00054
10.37	2.98968
10.38	2.97686
10.39	2.98804
10.4	3.01205
10.41	3.00909
10.42	3.00679
10.43	2.99462
10.44	2.96304
10.45	2.9808
10.46	3.01633
10.47	3.01205
10.48	2.98574
10.49	3.02949
10.5	3.0012
10.51	3.0364
10.52	3.00679
10.53	3.01074
10.54	3.02883
10.55	3.03212
10.56	3.00942
10.57	2.97653
10.58	3.00449
10.59	2.9864
10.6	2.99133
10.61	3.0308
10.62	3.01304
10.63	3.02949
10.64	2.98903
10.65	3.00745
10.66	2.98672
10.67	3.00087
10.68	3.00909
10.69	3.00547
10.7	2.98212
10.71	2.97488
10.72	2.97554
10.73	2.98968
10.74	2.99429
10.75	3.00679
10.76	3.00054
10.77	3.02028
10.78	3.03146
10.79	2.99692
10.8	3.02192
10.81	3.03311
10.82	2.99363
10.83	2.98376
10.84	2.96962
10.85	2.99429
10.86	3.02719
10.87	2.99265
10.88	3.0114
10.89	2.99166
10.9	2.98738
10.91	2.97488
10.92	2.98245
10.93	2.99297
10.94	2.98672
10.95	3.01107
10.96	3.00942
10.97	3.0012
10.98	2.99199
10.99	2.97949
11	3.01798
11.01	3.03179
11.02	3.00449
11.03	3.0035
11.04	3.00679
11.05	2.95383
11.06	3.01995
11.07	3.0433
11.08	3.01699
11.09	3.03212
11.1	3.0137
11.11	3.00449
11.12	3.00679
11.13	2.98508
11.14	2.98179
11.15	3.016
11.16	2.99462
11.17	3.01699
11.18	3.04232
11.19	3.04002
11.2	3.03245
11.21	3.04034
11.22	2.99561
11.23	2.99429
11.24	2.98146
11.25	2.98738
11.26	3.00021
11.27	2.98541
11.28	2.98047
11.29	2.99495
11.3	2.98541
11.31	2.99692
11.32	3.01074
11.33	2.9989
11.34	3.01403
11.35	3.00219
11.36	3.01041
11.37	3.00449
11.38	2.97949
11.39	2.98903
11.4	3.00021
11.41	3.02357
11.42	3.01567
11.43	3.01929
11.44	2.97389
11.45	2.99824
11.46	2.98409
11.47	2.97488
11.48	2.96896
11.49	3.00219
11.5	3.01436
11.51	3.00547
11.52	2.98672
11.53	2.99232
11.54	2.99528
11.55	3.00054
11.56	2.98705
11.57	2.98014
11.58	2.96403
11.59	2.96863
11.6	2.9808
11.61	2.98409
11.62	2.98146
11.63	3.02587
11.64	3.00876
11.65	3.01896
11.66	2.99692
11.67	3.016
11.68	2.9887
11.69	2.97916
11.7	2.98245
11.71	2.99067
11.72	2.96435
11.73	2.98442
11.74	2.97554
11.75	2.98705
11.76	2.99429
11.77	2.97653
11.78	3.01172
11.79	3.00383
11.8	2.98541
11.81	2.98771
11.82	3.00942
11.83	2.99133
11.84	2.99955
11.85	3.00811
11.86	3.01962
11.87	2.98442
11.88	3.00482
11.89	3.01633
11.9	2.99265
11.91	2.98804
11.92	3.02521
11.93	3.01732
11.94	2.9933
11.95	3.01041
11.96	3.00186
11.97	2.96468
11.98	2.98837
11.99	3.00186
12	3.00547
12.01	2.98146
12.02	2.96666
12.03	2.94462
12.04	2.98968
12.05	2.99922
12.06	3.02225
12.07	3.01304
12.08	2.96468
12.09	2.96863
12.1	2.99232
12.11	3.0058
12.12	3.00416
12.13	3.01666
12.14	2.99363
12.15	3.01238
12.16	3.00219
12.17	2.99495
12.18	2.98936
12.19	3.02159
12.2	2.99528
12.21	2.97817
12.22	2.98113
12.23	2.98738
12.24	2.98409
12.25	2.96929
12.26	2.9762
12.27	2.97291
12.28	2.96929
12.29	2.99462
12.3	3.00547
12.31	2.99067
12.32	2.95909
12.33	3.00515
12.34	2.99133
12.35	3.00284
12.36	3.00876
12.37	2.99067
12.38	3.00251
12.39	3.00482
12.4	2.96501
12.41	2.98179
12.42	3.00317
12.43	2.98212
12.44	2.95416
12.45	2.97357
12.46	2.96666
12.47	2.96896
12.48	2.9864
12.49	3.0137
12.5	2.98672
12.51	2.9933
12.52	3.00284
12.53	3.01436
12.54	3.01238
12.55	2.96205
12.56	2.98541
12.57	3.01205
12.58	2.99199
12.59	2.97291
12.6	2.98278
12.61	2.97982
12.62	2.97916
12.63	2.97028
12.64	2.96107
12.65	2.98311
12.66	3.00087
12.67	3.00547
12.68	2.98376
12.69	2.97916
12.7	2.99232
12.71	3.02061
12.72	2.991
12.73	2.98903
12.74	2.98343
12.75	2.98376
12.76	2.98804
12.77	2.98672
12.78	2.96468
12.79	2.96238
12.8	2.98672
12.81	2.97949
12.82	2.991
12.83	3.00284
12.84	2.99791
12.85	3.02817
12.86	3.00416
12.87	2.99232
12.88	3.00153
12.89	2.96534
12.9	3.00547
12.91	2.97982
12.92	2.98738
12.93	2.99232
12.94	2.98771
12.95	2.98837
12.96	2.95712
12.97	2.99166
12.98	3.01304
12.99	2.98475
13	2.98968
13.01	3.02686
13.02	3.00613
13.03	2.98179
13.04	2.98212
13.05	2.99297
13.06	2.96172
13.07	3.00613
13.08	3.01271
13.09	2.99528
13.1	2.97357
13.11	2.99034
13.12	2.98574
13.13	2.97389
13.14	2.98442
13.15	2.99199
13.16	2.97949
13.17	2.9785
13.18	2.97126
13.19	2.97126
13.2	2.97192
13.21	2.98804
13.22	2.96205
13.23	2.95482
13.24	2.97488
13.25	2.96304
13.26	2.96666
13.27	3.01534
13.28	3.0183
13.29	3.00547
13.3	2.97291
13.31	3.00153
13.32	2.97751
13.33	2.93804
13.34	2.94067
13.35	2.97949
13.36	2.98311
13.37	2.98442
13.38	2.99067
13.39	2.97192
13.4	2.99067
13.41	2.98113
13.42	2.97883
13.43	2.97357
13.44	2.98837
13.45	2.97751
13.46	2.96633
13.47	2.97324
13.48	3.00219
13.49	3.00613
13.5	2.94889
13.51	2.97488
13.52	2.97982
13.53	2.97061
13.54	2.97916
13.55	2.99692
13.56	2.99232
13.57	2.99528
13.58	3.00087
13.59	2.99232
13.6	2.96896
13.61	2.99692
13.62	2.95843
13.63	2.97061
13.64	3.00449
13.65	2.99758
13.66	2.96633
13.67	2.96271
13.68	2.9433
13.69	2.97291
13.7	2.99561
13.71	2.96732
13.72	2.9933
13.73	3.01238
13.74	2.9933
13.75	3.00416
13.76	2.97357
13.77	2.97093
13.78	2.99791
13.79	2.97982
13.8	2.96107
13.81	2.95876
13.82	2.97817
13.83	2.98376
13.84	2.97225
13.85	3.00087
13.86	2.9864
13.87	3.00153
13.88	2.97521
13.89	2.96205
13.9	2.9933
13.91	2.99659
13.92	2.99988
13.93	3.00515
13.94	3.0058
13.95	3.0012
13.96	2.99528
13.97	2.97949
13.98	3.00021
13.99	3.00844
14	2.991
14.01	2.9683
14.02	2.97159
14.03	2.95876
14.04	2.99232
14.05	2.99758
14.06	2.9989
14.07	2.96534
14.08	2.9808
14.09	2.96797
14.1	2.97258
14.11	2.99462
14.12	2.94725
14.13	2.97653
14.14	2.98607
14.15	2.99462
14.16	2.99462
14.17	2.97916
14.18	2.96666
14.19	2.95975
14.2	2.97422
14.21	2.96435
14.22	2.98936
14.23	2.96238
14.24	2.98672
14.25	2.97324
14.26	2.97357
14.27	2.97093
14.28	2.9887
14.29	2.97949
14.3	2.95317
14.31	2.98541
14.32	2.99166
14.33	2.97455
14.34	2.99758
14.35	2.97488
14.36	2.95712
14.37	3.02982
14.38	2.97422
14.39	2.9808
14.4	2.9808
14.41	2.9637
14.42	2.97784
14.43	2.94988
14.44	2.94955
14.45	2.97817
14.46	2.99001
14.47	2.98903
14.48	2.9785
14.49	2.98311
14.5	2.99593
14.51	2.96797
14.52	2.97389
14.53	2.9989
14.54	2.98442
14.55	2.93146
14.56	2.9637
14.57	2.98771
14.58	2.97521
14.59	2.94725
14.6	2.9887
14.61	2.95975
14.62	2.96337
14.63	2.98113
14.64	3.00251
14.65	2.94922
14.66	2.99725
14.67	2.98475
14.68	2.99166
14.69	2.98508
14.7	2.97883
14.71	2.98508
14.72	2.97949
14.73	2.991
14.74	2.94988
14.75	2.96238
14.76	2.98278
14.77	2.97357
14.78	2.96403
14.79	2.99297
14.8	2.98442
14.81	2.98376
14.82	2.96139
14.83	2.96567
14.84	2.96929
14.85	2.98245
14.86	2.97488
14.87	2.98311
14.88	2.99133
14.89	2.96501
14.9	2.9785
14.91	2.96172
14.92	2.97455
14.93	2.9637
14.94	2.9637
14.95	2.98047
14.96	2.9535
14.97	2.96995
14.98	2.96633
14.99	2.96797
15	2.99626
15.01	2.99133
15.02	2.96139
15.03	2.97916
15.04	2.9683
15.05	3.01074
15.06	2.96995
15.07	2.97159
15.08	2.97554
15.09	2.9785
15.1	2.97554
15.11	2.97093
15.12	2.98738
15.13	2.99561
15.14	2.96732
15.15	2.95251
15.16	2.96008
15.17	2.97916
15.18	2.95843
15.19	2.96337
15.2	2.97587
15.21	2.96139
15.22	2.95876
15.23	2.9762
15.24	3.01765
15.25	2.97291
15.26	2.96107
15.27	2.9785
15.28	2.96666
15.29	2.99561
15.3	2.99824
15.31	3.00087
15.32	2.96962
15.33	2.93574
15.34	2.95909
15.35	2.98475
15.36	2.98607
15.37	2.96732
15.38	2.98146
15.39	2.97784
15.4	2.96271
15.41	2.98278
15.42	2.97291
15.43	2.9808
15.44	2.966
15.45	2.98672
15.46	2.96633
15.47	2.97686
15.48	2.98376
15.49	2.93376
15.5	2.94067
15.51	2.96929
15.52	2.94528
15.53	2.92488
15.54	2.94034
15.55	2.97258
15.56	3.00251
15.57	2.99462
15.58	3.00383
15.59	2.99199
15.6	2.96962
15.61	2.95975
15.62	2.95876
15.63	2.97061
15.64	2.9581
15.65	2.96435
15.66	3.01041
15.67	2.96962
15.68	2.9762
15.69	2.96205
15.7	2.92751
15.71	2.9512
15.72	2.98804
15.73	2.9808
15.74	2.97455
15.75	2.97159
15.76	2.94462
15.77	2.96797
15.78	2.97061
15.79	2.9535
15.8	2.96337
15.81	2.95745
15.82	2.9558
15.83	2.96205
15.84	2.9637
15.85	2.97126
15.86	2.97389
15.87	3.00021
15.88	2.98442
15.89	2.92652
15.9	2.95547
15.91	2.96008
15.92	2.94758
15.93	2.96403
15.94	2.97159
15.95	2.95909
15.96	2.95218
15.97	2.94725
15.98	2.96764
15.99	2.96271
16	2.96468
16.01	2.96238
16.02	2.96271
16.03	2.96008
16.04	2.93771
16.05	2.96896
16.06	2.991
16.07	3.00317
16.08	2.9433
16.09	2.93804
16.1	2.98738
16.11	2.98409
16.12	2.92718
16.13	2.95153
16.14	2.98409
16.15	2.98442
16.16	2.96074
16.17	2.97324
16.18	2.97126
16.19	2.9581
16.2	2.96699
16.21	3.00909
16.22	2.98771
16.23	2.96403
16.24	2.94264
16.25	2.94067
16.26	2.96764
16.27	2.99067
16.28	2.97028
16.29	2.94495
16.3	2.95087
16.31	2.92455
16.32	2.97126
16.33	2.96633
16.34	2.94692
16.35	2.95975
16.36	2.97291
16.37	2.97357
16.38	2.96699
16.39	2.97587
16.4	2.96863
16.41	2.95087
16.42	2.95876
16.43	2.92949
16.44	2.98014
16.45	2.96863
16.46	2.95909
16.47	2.96074
16.48	2.99199
16.49	2.98212
16.5	2.9558
16.51	2.9558
16.52	2.9433
16.53	2.94922
16.54	2.95218
16.55	2.96567
16.56	2.94626
16.57	2.93343
16.58	2.94001
16.59	2.92093
16.6	2.94133
16.61	2.97718
16.62	2.99396
16.63	3.00087
16.64	2.94824
16.65	2.94593
16.66	2.96337
16.67	2.92587
16.68	2.97521
16.69	2.96896
16.7	2.94889
16.71	2.98245
16.72	2.93606
16.73	2.96764
16.74	2.9808
16.75	2.95153
16.76	2.94922
16.77	2.94528
16.78	2.95876
16.79	2.99133
16.8	2.94955
16.81	2.94922
16.82	2.94988
16.83	2.95712
16.84	2.9864
16.85	2.96304
16.86	2.97258
16.87	2.94725
16.88	2.96764
16.89	2.95942
16.9	2.97159
16.91	2.97982
16.92	2.98804
16.93	2.96403
16.94	2.9331
16.95	2.97817
16.96	3.00515
16.97	2.94067
16.98	2.99034
16.99	2.96534
17	2.941
17.01	2.94297
17.02	2.99758
17.03	2.99133
17.04	2.92751
17.05	2.93574
17.06	2.94922
17.07	2.99462
17.08	2.98574
17.09	2.96403
17.1	2.98047
17.11	2.96205
17.12	2.98903
17.13	2.94758
17.14	2.95778
17.15	2.96995
17.16	2.99265
17.17	2.96501
17.18	2.99692
17.19	2.99791
17.2	2.96764
17.21	3.00942
17.22	2.92258
17.23	2.92685
17.24	2.98771
17.25	2.97587
17.26	2.99988
17.27	2.98212
17.28	2.94659
17.29	2.9581
17.3	2.97093
17.31	2.98607
17.32	2.98607
17.33	3.00416
17.34	2.96008
17.35	2.95218
17.36	2.96896
17.37	2.99528
17.38	2.96764
17.39	2.9535
17.4	2.92356
17.41	2.95153
17.42	2.97258
17.43	2.97488
17.44	2.94725
17.45	2.94133
17.46	2.95679
17.47	2.9785
17.48	2.96403
17.49	2.94955
17.5	2.94988
17.51	2.94659
17.52	2.9512
17.53	2.97028
17.54	2.95975
17.55	2.93376
17.56	2.95547
17.57	2.96633
17.58	2.97389
17.59	2.95054
17.6	2.98738
17.61	2.95745
17.62	2.98179
17.63	2.94791
17.64	2.97126
17.65	2.95514
17.66	2.97455
17.67	2.96764
17.68	2.98278
17.69	2.95251
17.7	2.93245
17.71	2.92685
17.72	2.94692
17.73	2.94889
17.74	2.97718
17.75	2.97916
17.76	2.95712
17.77	2.97291
17.78	2.94626
17.79	2.98278
17.8	2.95975
17.81	2.94922
17.82	2.97126
17.83	2.97061
17.84	2.95383
17.85	2.95843
17.86	2.9637
17.87	2.96435
17.88	2.96567
17.89	2.97455
17.9	2.93179
17.91	2.92784
17.92	2.93442
17.93	2.941
17.94	2.97061
17.95	2.9683
17.96	2.93968
17.97	2.9558
17.98	2.98903
17.99	2.94725
18	2.96534
18.01	2.95745
18.02	2.97093
18.03	2.96962
18.04	2.97061
18.05	2.9683
18.06	2.98936
18.07	2.9785
18.08	2.97883
18.09	2.9558
18.1	2.95679
18.11	2.96896
18.12	2.95778
18.13	2.97159
18.14	2.95284
18.15	2.93705
18.16	2.96107
18.17	2.97159
18.18	2.95054
18.19	2.93935
18.2	2.92718
18.21	2.94363
18.22	2.99561
18.23	2.96074
18.24	2.95975
18.25	2.95284
18.26	2.97093
18.27	2.95482
18.28	2.93409
18.29	2.96304
18.3	2.94231
18.31	2.97324
18.32	2.96172
18.33	2.95416
18.34	2.95021
18.35	2.95712
18.36	2.94824
18.37	2.97554
18.38	2.94988
18.39	2.941
18.4	2.97225
18.41	2.97554
18.42	2.96534
18.43	2.96896
18.44	2.9683
18.45	2.93935
18.46	2.94133
18.47	2.98343
18.48	2.98508
18.49	2.96929
18.5	2.96501
18.51	2.95153
18.52	2.94199
18.53	2.97587
18.54	2.93672
18.55	2.93903
18.56	2.93968
18.57	2.99166
18.58	2.98936
18.59	2.9637
18.6	2.94955
18.61	2.93376
18.62	2.95284
18.63	2.94133
18.64	2.93409
18.65	2.95679
18.66	2.92093
18.67	2.96304
18.68	2.95021
18.69	2.96041
18.7	2.94988
18.71	2.92521
18.72	2.95547
18.73	2.96534
18.74	2.94231
18.75	2.98113
18.76	2.98047
18.77	2.95251
18.78	2.97389
18.79	2.95021
18.8	2.96534
18.81	2.94955
18.82	2.97718
18.83	2.97159
18.84	2.9433
18.85	2.93639
18.86	2.97291
18.87	2.95087
18.88	2.98903
18.89	2.98245
18.9	2.96666
18.91	2.93804
18.92	2.95021
18.93	2.96172
18.94	2.94692
18.95	2.95317
18.96	2.97126
18.97	2.96304
18.98	2.94297
18.99	2.93343
19	2.97389
19.01	2.97718
19.02	2.94856
19.03	2.96008
19.04	2.98047
19.05	2.95482
19.06	2.95876
19.07	2.95054
19.08	2.9331
19.09	2.94528
19.1	2.95185
19.11	2.95416
19.12	2.94725
19.13	2.94067
19.14	2.95054
19.15	3.00547
19.16	2.97949
19.17	2.96567
19.18	2.93541
19.19	2.94626
19.2	2.91271
19.21	2.97028
19.22	2.97324
19.23	2.97258
19.24	2.97982
19.25	2.96238
19.26	2.97126
19.27	2.9308
19.28	2.94988
19.29	2.98442
19.3	2.95185
19.31	2.92817
19.32	2.94264
19.33	2.92981
19.34	2.96435
19.35	2.96666
19.36	2.96666
19.37	2.96271
19.38	2.96337
19.39	2.96238
19.4	2.95317
19.41	2.97949
19.42	2.95975
19.43	2.96337
19.44	2.94856
19.45	2.93245
19.46	2.94495
19.47	2.941
19.48	2.96172
19.49	2.97686
19.5	2.96435
19.51	2.95021
19.52	2.94758
19.53	2.96896
19.54	2.95909
19.55	2.93179
19.56	2.97126
19.57	2.94725
19.58	2.96764
19.59	2.94034
19.6	2.97258
19.61	2.9387
19.62	2.97061
19.63	2.94725
19.64	2.92685
19.65	2.93705
19.66	2.93047
19.67	2.97455
19.68	2.96567
19.69	2.94922
19.7	2.9637
19.71	2.96666
19.72	2.94231
19.73	2.94955
19.74	2.96304
19.75	2.95843
19.76	2.98738
19.77	2.95646
19.78	2.93705
19.79	2.93639
19.8	2.96304
19.81	2.97061
19.82	2.96699
19.83	2.98541
19.84	2.94199
19.85	2.95679
19.86	2.93508
19.87	2.93672
19.88	2.9456
19.89	2.93146
19.9	2.96238
19.91	2.93639
19.92	2.98705
19.93	2.98113
19.94	2.94725
19.95	2.95021
19.96	2.9887
19.97	2.93837
19.98	2.93047
19.99	2.94758
20	2.9512
20.01	2.93771
20.02	2.95383
20.03	2.95449
20.04	2.98607
20.05	2.96732
20.06	2.94133
20.07	2.96929
20.08	2.96764
20.09	2.98903
20.1	2.94988
20.11	2.95185
20.12	2.95087
20.13	2.98442
20.14	2.9387
20.15	2.95514
20.16	2.97126
20.17	2.94824
20.18	2.93903
20.19	2.95153
20.2	2.96041
20.21	2.97126
20.22	2.94166
20.23	2.93935
20.24	2.94001
20.25	2.98047
20.26	2.96995
20.27	2.94495
20.28	2.98475
20.29	2.97324
20.3	2.91402
20.31	2.93047
20.32	2.96403
20.33	2.9512
20.34	2.92389
20.35	2.9433
20.36	2.9308
20.37	2.93014
20.38	2.9512
20.39	2.92554
20.4	2.94659
20.41	2.99758
20.42	2.96435
20.43	2.97389
20.44	2.95251
20.45	2.92554
20.46	2.95449
20.47	2.96468
20.48	2.95087
20.49	2.92652
20.5	2.95646
20.51	2.95745
20.52	2.95909
20.53	2.94429
20.54	2.94593
20.55	2.94528
20.56	2.9581
20.57	2.95054
20.58	2.9637
20.59	2.94297
20.6	2.91271
20.61	2.93639
20.62	2.9785
20.63	2.94626
20.64	2.94495
20.65	2.93376
20.66	2.92981
20.67	2.97521
20.68	2.95547
20.69	2.91896
20.7	2.94528
20.71	2.9387
20.72	2.93113
20.73	2.94889
20.74	2.96403
20.75	2.93245
20.76	2.94725
20.77	2.96896
20.78	2.966
20.79	2.97718
20.8	2.97916
20.81	2.94429
20.82	2.94297
20.83	2.94166
20.84	2.94429
20.85	2.98738
20.86	2.99001
20.87	2.98771
20.88	2.97784
20.89	2.91501
20.9	2.93935
20.91	2.95876
20.92	2.94133
20.93	2.93606
20.94	2.94758
20.95	2.95876
20.96	2.96764
20.97	2.96633
20.98	2.95514
20.99	2.92916
21	2.97357
21.01	2.94133
21.02	2.93343
21.03	2.94462
21.04	2.941
21.05	2.95317
21.06	2.98475
21.07	2.94264
21.08	2.92291
21.09	2.89988
21.1	2.94363
21.11	2.93837
21.12	2.92521
21.13	2.95975
21.14	2.94758
21.15	2.92751
21.16	2.93113
21.17	2.93014
21.18	2.9206
21.19	2.91666
21.2	2.94264
21.21	2.96304
21.22	2.95745
21.23	2.97291
21.24	2.95087
21.25	2.92817
21.26	2.94396
21.27	2.95876
21.28	2.96468
21.29	2.94692
21.3	2.95778
21.31	2.94725
21.32	2.92718
21.33	2.94593
21.34	2.92718
21.35	2.92718
21.36	2.91731
21.37	2.93047
21.38	2.92751
21.39	2.96699
21.4	2.91666
21.41	2.96732
21.42	2.96238
21.43	2.93935
21.44	2.9683
21.45	2.93574
21.46	2.95251
21.47	2.94363
21.48	2.95843
21.49	2.98771
21.5	2.94034
21.51	2.94824
21.52	2.95745
21.53	2.95416
21.54	2.96008
21.55	2.97291
21.56	2.94034
21.57	2.96435
21.58	2.94067
21.59	2.93705
21.6	2.94363
21.61	2.94758
21.62	2.91929
21.63	2.9456
21.64	2.97126
21.65	2.9433
21.66	2.93903
21.67	2.94462
21.68	2.96633
21.69	2.95482
21.7	2.94231
21.71	2.9387
21.72	2.9512
21.73	2.90054
21.74	2.93771
21.75	2.95054
21.76	2.96468
21.77	2.97093
21.78	2.94067
21.79	2.96666
21.8	2.95843
21.81	2.95185
21.82	2.93442
21.83	2.94264
21.84	2.99001
21.85	2.93804
21.86	2.94363
21.87	2.95514
21.88	2.94396
21.89	2.941
21.9	2.97192
21.91	2.96271
21.92	2.92981
21.93	2.95843
21.94	2.94725
21.95	2.97817
21.96	2.96929
21.97	2.94791
21.98	2.94363
21.99	2.90284
22	2.95416
22.01	2.92916
22.02	2.93146
22.03	2.93047
22.04	2.92883
22.05	2.92949
22.06	2.97817
22.07	2.97554
22.08	2.94593
22.09	2.94824
22.1	2.9137
22.11	2.97093
22.12	2.94593
22.13	2.93146
22.14	2.93639
22.15	2.93409
22.16	2.92225
22.17	2.94856
22.18	2.9331
22.19	2.92389
22.2	2.96107
22.21	2.94692
22.22	2.94725
22.23	2.93014
22.24	2.9262
22.25	2.9558
22.26	2.93277
22.27	2.95482
22.28	2.94692
22.29	2.97784
22.3	2.96929
22.31	2.97784
22.32	2.94889
22.33	2.89001
22.34	2.93606
22.35	2.97061
22.36	2.95185
22.37	2.92817
22.38	2.92916
22.39	2.97061
22.4	2.96107
22.41	2.93047
22.42	2.90712
22.43	2.92883
22.44	2.94528
22.45	2.97686
22.46	2.94889
22.47	2.95284
22.48	2.93277
22.49	2.95284
22.5	2.94034
22.51	2.92521
22.52	2.97258
22.53	2.95185
22.54	2.9285
22.55	2.96337
22.56	2.95317
22.57	2.97126
22.58	2.9262
22.59	2.91764
22.6	2.92784
22.61	2.93804
22.62	2.94297
22.63	2.97982
22.64	2.93277
22.65	2.94067
22.66	2.96534
22.67	2.94429
22.68	2.94429
22.69	2.94593
22.7	2.94725
22.71	2.94133
22.72	2.91764
22.73	2.93935
22.74	2.9331
22.75	2.95613
22.76	2.95646
22.77	2.91764
22.78	2.95317
22.79	2.96435
22.8	2.96732
22.81	2.96863
22.82	2.96337
22.83	2.95975
22.84	2.93376
22.85	2.94396
22.86	2.95021
22.87	2.9433
22.88	2.96764
22.89	2.94791
22.9	2.94495
22.91	2.96205
22.92	2.99396
22.93	2.95909
22.94	2.95909
22.95	2.96271
22.96	2.94363
22.97	2.93705
22.98	2.98409
22.99	2.95251
23	2.91633
23.01	2.95218
23.02	2.92455
23.03	2.94067
23.04	2.91995
23.05	2.92027
23.06	2.94856
23.07	2.95613
23.08	2.93475
23.09	2.94297
23.1	2.97093
23.11	2.96666
23.12	2.93672
23.13	2.91962
23.14	2.93606
23.15	2.93738
23.16	2.92488
23.17	2.93639
23.18	2.96501
23.19	2.9433
23.2	2.95218
23.21	2.93771
23.22	2.92192
23.23	2.97258
23.24	2.9535
23.25	2.94429
23.26	2.9581
23.27	2.94758
23.28	2.93935
23.29	2.97093
23.3	2.92718
23.31	2.941
23.32	2.95021
23.33	2.94791
23.34	2.95843
23.35	2.97061
23.36	2.92784
23.37	2.94593
23.38	2.93409
23.39	2.9387
23.4	2.94034
23.41	2.94791
23.42	2.9387
23.43	2.95712
23.44	2.91995
23.45	2.91797
23.46	2.92751
23.47	2.9387
23.48	2.95975
23.49	2.95153
23.5	2.94824
23.51	2.96041
23.52	2.96139
23.53	2.94889
23.54	2.93508
23.55	2.94528
23.56	2.92488
23.57	2.95218
23.58	2.96633
23.59	2.95514
23.6	2.92027
23.61	2.94495
23.62	2.94791
23.63	2.95087
23.64	2.96205
23.65	2.93442
23.66	2.94922
23.67	2.90613
23.68	2.93146
23.69	2.9285
23.7	2.94396
23.71	2.92949
23.72	2.9558
23.73	2.98409
23.74	2.93771
23.75	2.94922
23.76	2.9081
23.77	2.93804
23.78	2.94758
23.79	2.94297
23.8	2.93639
23.81	2.93245
23.82	2.93705
23.83	2.93771
23.84	2.93574
23.85	2.91567
23.86	2.92389
23.87	2.95975
23.88	2.92192
23.89	2.94133
23.9	2.9206
23.91	2.94528
23.92	2.96896
23.93	2.95514
23.94	2.94001
23.95	2.95317
23.96	2.95416
23.97	2.93672
23.98	2.93935
23.99	2.98376
24	2.93047
24.01	2.9512
24.02	2.94495
24.03	2.92324
24.04	2.94133
24.05	2.94528
24.06	2.90777
24.07	2.90646
24.08	2.92883
24.09	2.94297
24.1	2.95547
24.11	2.93771
24.12	2.93475
24.13	2.93277
24.14	2.94067
24.15	2.94692
24.16	2.97258
24.17	2.96699
24.18	2.96271
24.19	2.92356
24.2	2.93475
24.21	2.9637
24.22	2.94001
24.23	2.95021
24.24	2.96008
24.25	2.94363
24.26	2.94889
24.27	2.94429
24.28	2.93639
24.29	2.93574
24.3	2.93277
24.31	2.96929
24.32	2.95778
24.33	2.95942
24.34	2.95482
24.35	2.93968
24.36	2.96238
24.37	2.94462
24.38	2.97225
24.39	2.9637
24.4	2.96403
24.41	2.95876
24.42	2.95712
24.43	2.98014
24.44	2.94988
24.45	2.95383
24.46	2.94593
24.47	2.94659
24.48	2.94692
24.49	2.93047
24.5	2.95383
24.51	2.92455
24.52	2.9308
24.53	2.93738
24.54	2.99265
24.55	2.98672
24.56	2.94593
24.57	2.94495
24.58	2.95153
24.59	2.93771
24.6	2.9206
24.61	2.94199
24.62	2.95909
24.63	2.92916
24.64	2.92587
24.65	2.94297
24.66	2.91567
24.67	2.94034
24.68	2.96468
24.69	2.94988
24.7	2.97258
24.71	2.96896
24.72	2.97653
24.73	2.9387
24.74	2.93705
24.75	2.91633
24.76	2.92981
24.77	2.91008
24.78	2.9308
24.79	2.94231
24.8	2.96797
24.81	2.98771
24.82	2.99199
24.83	2.97093
24.84	2.94495
24.85	2.92949
24.86	2.93837
24.87	2.94889
24.88	2.94988
24.89	2.96337
24.9	2.95975
24.91	2.93508
24.92	2.94659
24.93	2.93508
24.94	2.94429
24.95	2.93935
24.96	2.91172
24.97	2.9308
24.98	2.95646
24.99	2.95547
25	2.92554
25.01	2.92784
25.02	2.93804
25.03	2.90481
25.04	2.94462
25.05	2.93738
25.06	2.90876
25.07	2.95975
25.08	2.94363
25.09	2.93014
25.1	2.96929
25.11	2.93606
25.12	2.94626
25.13	2.94001
25.14	2.9308
25.15	2.97357
25.16	2.9581
25.17	2.94528
25.18	2.92488
25.19	2.94922
25.2	2.92159
25.21	2.91731
25.22	2.9262
25.23	2.94988
25.24	2.93837
25.25	2.90679
25.26	2.93146
25.27	2.94429
25.28	2.94856
25.29	2.96041
25.3	2.94199
25.31	2.90646
25.32	2.91896
25.33	2.93442
25.34	2.95679
25.35	2.97422
25.36	2.88376
25.37	2.94166
25.38	2.97258
25.39	2.95712
25.4	2.95942
25.41	2.97192
25.42	2.9762
25.43	2.95482
25.44	2.93804
25.45	2.94396
25.46	2.90876
25.47	2.93343
25.48	2.91962
25.49	2.9183
25.5	2.92949
25.51	2.93277
25.52	2.96041
25.53	2.92883
25.54	2.96403
25.55	2.966
25.56	2.94824
25.57	2.92949
25.58	2.91633
25.59	2.91731
25.6	2.95778
25.61	2.92554
25.62	2.94824
25.63	2.94528
25.64	2.91666
25.65	2.91139
25.66	2.94758
25.67	2.91567
25.68	2.93113
25.69	2.90876
25.7	2.9206
25.71	2.92521
25.72	2.93804
25.73	2.92652
25.74	2.91995
25.75	2.94495
25.76	2.92027
25.77	2.9183
25.78	2.92192
25.79	2.91633
25.8	2.94988
25.81	2.94824
25.82	2.91271
25.83	2.92093
25.84	2.95843
25.85	2.94231
25.86	2.95317
25.87	2.94725
25.88	2.92949
25.89	2.96863
25.9	2.92949
25.91	2.91271
25.92	2.93738
25.93	2.93771
25.94	2.93277
25.95	2.92718
25.96	2.9183
25.97	2.93277
25.98	2.92126
25.99	2.91666
26	2.91929
26.01	2.9262
26.02	2.91041
26.03	2.9456
26.04	2.92981
26.05	2.916
26.06	2.91172
26.07	2.96863
26.08	2.91863
26.09	2.92455
26.1	2.90646
26.11	2.93245
26.12	2.97061
26.13	2.94922
26.14	2.9206
26.15	2.92784
26.16	2.95185
26.17	2.9308
26.18	2.92521
26.19	2.94922
26.2	2.96534
26.21	2.95449
26.22	2.92981
26.23	2.94856
26.24	2.94067
26.25	2.95547
26.26	2.94725
26.27	2.92916
26.28	2.93837
26.29	2.90087
26.3	2.92291
26.31	2.891
26.32	2.9262
26.33	2.93639
26.34	2.9535
26.35	2.9512
26.36	2.97028
26.37	2.9308
26.38	2.93014
26.39	2.92258
26.4	2.93804
26.41	2.94791
26.42	2.93541
26.43	2.95153
26.44	2.94758
26.45	2.92389
26.46	2.92356
26.47	2.94429
26.48	2.95547
26.49	2.93837
26.5	2.9331
26.51	2.92027
26.52	2.93771
26.53	2.93639
26.54	2.94264
26.55	2.92258
26.56	2.93541
26.57	2.93376
26.58	2.94166
26.59	2.94889
26.6	2.94429
26.61	2.93179
26.62	2.95613
26.63	2.97291
26.64	2.95613
26.65	2.95712
26.66	2.92455
26.67	2.96107
26.68	2.90909
26.69	2.92291
26.7	2.91073
26.71	2.93212
26.72	2.94429
26.73	2.94593
26.74	2.93672
26.75	2.94429
26.76	2.93903
26.77	2.97258
26.78	2.966
26.79	2.93442
26.8	2.92291
26.81	2.91271
26.82	2.93146
26.83	2.95284
26.84	2.93508
26.85	2.95514
26.86	2.95021
26.87	2.94758
26.88	2.96172
26.89	2.93014
26.9	2.90021
26.91	2.93113
26.92	2.96041
26.93	2.94758
26.94	2.94264
26.95	2.96107
26.96	2.96501
26.97	2.93606
26.98	2.92356
26.99	2.94462
27	2.9933
27.01	2.96699
27.02	2.93245
27.03	2.92422
27.04	2.93245
27.05	2.94396
27.06	2.92258
27.07	2.91764
27.08	2.92324
27.09	2.9206
27.1	2.91567
27.11	2.91534
27.12	2.941
27.13	2.94133
27.14	2.95153
27.15	2.91008
27.16	2.96863
27.17	2.93903
27.18	2.96962
27.19	2.92324
27.2	2.92652
27.21	2.94133
27.22	2.94363
27.23	2.93146
27.24	2.93179
27.25	2.94659
27.26	2.97324
27.27	2.97324
27.28	2.96666
27.29	2.92356
27.3	2.93343
27.31	2.95876
27.32	2.97028
27.33	2.966
27.34	2.98607
27.35	2.97061
27.36	2.93245
27.37	2.9535
27.38	2.94791
27.39	2.93837
27.4	2.94889
27.41	2.91238
27.42	2.93508
27.43	2.9285
27.44	2.93903
27.45	2.93212
27.46	2.94988
27.47	2.92718
27.48	2.92587
27.49	2.95547
27.5	2.93343
27.51	2.91929
27.52	2.93146
27.53	2.94922
27.54	2.9762
27.55	2.93705
27.56	2.9535
27.57	2.91995
27.58	2.9308
27.59	2.9308
27.6	2.93409
27.61	2.91337
27.62	2.9308
27.63	2.941
27.64	2.93672
27.65	2.91073
27.66	2.90284
27.67	2.92389
27.68	2.92883
27.69	2.95317
27.7	2.96699
27.71	2.90514
27.72	2.90251
27.73	2.9206
27.74	2.91008
27.75	2.93212
27.76	2.92916
27.77	2.91271
27.78	2.91435
27.79	2.9137
27.8	2.95975
27.81	2.95547
27.82	2.95087
27.83	2.92817
27.84	2.94396
27.85	2.95021
27.86	2.9285
27.87	2.88047
27.88	2.90448
27.89	2.91534
27.9	2.93574
27.91	2.94166
27.92	2.91238
27.93	2.92488
27.94	2.91501
27.95	2.916
27.96	2.93574
27.97	2.93475
27.98	2.92784
27.99	2.96139
28	2.93574
28.01	2.93541
28.02	2.90646
28.03	2.91797
28.04	2.91731
28.05	2.91666
28.06	2.95449
28.07	2.9206
28.08	2.9433
28.09	2.95383
28.1	2.93047
28.11	2.91764
28.12	2.96107
28.13	2.93047
28.14	2.91205
28.15	2.92916
28.16	2.93508
28.17	2.92356
28.18	2.94001
28.19	2.95778
28.2	2.9456
28.21	2.91731
28.22	2.95745
28.23	2.94297
28.24	2.93574
28.25	2.96041
28.26	2.94824
28.27	2.91172
28.28	2.916
28.29	2.92981
28.3	2.91435
28.31	2.90416
28.32	2.91929
28.33	2.94692
28.34	2.94824
28.35	2.93376
28.36	2.91435
28.37	2.91764
28.38	2.94363
28.39	2.93606
28.4	2.92751
28.41	2.94133
28.42	2.9433
28.43	2.92949
28.44	2.96666
28.45	2.93837
28.46	2.92521
28.47	2.91797
28.48	2.93343
28.49	2.94758
28.5	2.95416
28.51	2.95745
28.52	2.9433
28.53	2.95909
28.54	2.91896
28.55	2.91501
28.56	2.94791
28.57	2.92685
28.58	2.94034
28.59	2.91501
28.6	2.94297
28.61	2.95942
28.62	2.95482
28.63	2.94824
28.64	2.93409
28.65	2.97258
28.66	2.97587
28.67	2.94725
28.68	2.92455
28.69	2.92291
28.7	2.93376
28.71	2.92685
28.72	2.93606
28.73	2.92949
28.74	2.94462
28.75	2.92488
28.76	2.94264
28.77	2.93672
28.78	2.93179
28.79	2.9512
28.8	2.96271
28.81	2.94396
28.82	2.91698
28.83	2.92455
28.84	2.9535
28.85	2.94133
28.86	2.95284
28.87	2.93541
28.88	2.9206
28.89	2.94034
28.9	2.98014
28.91	2.95547
28.92	2.9785
28.93	2.96271
28.94	2.93968
28.95	2.9183
28.96	2.97587
28.97	2.96699
28.98	2.91337
28.99	2.9285
29	2.9387
29.01	2.95876
29.02	2.88277
29.03	2.90021
29.04	2.94297
29.05	2.91962
29.06	2.90021
29.07	2.93837
29.08	2.93672
29.09	2.93574
29.1	2.94001
29.11	2.90251
29.12	2.93343
29.13	2.92587
29.14	2.93212
29.15	2.95185
29.16	2.9137
29.17	2.93639
29.18	2.9331
29.19	2.93639
29.2	2.92554
29.21	2.91995
29.22	2.92159
29.23	2.89626
29.24	2.93442
29.25	2.94593
29.26	2.9308
29.27	2.916
29.28	2.93935
29.29	2.93014
29.3	2.94758
29.31	2.94067
29.32	2.92455
29.33	2.92356
29.34	2.97291
29.35	2.91435
29.36	2.90021
29.37	2.90087
29.38	2.93705
29.39	2.95383
29.4	2.96666
29.41	2.94034
29.42	2.92981
29.43	2.93047
29.44	2.97587
29.45	2.9456
29.46	2.90481
29.47	2.9433
29.48	2.92126
29.49	2.92455
29.5	2.94593
29.51	2.93672
29.52	2.93935
29.53	2.94297
29.54	2.95514
29.55	2.941
29.56	2.91731
29.57	2.89791
29.58	2.92192
29.59	2.916
29.6	2.94297
29.61	2.96271
29.62	2.96008
29.63	2.91337
29.64	2.94725
29.65	2.93672
29.66	2.92291
29.67	2.91205
29.68	2.92751
29.69	2.92192
29.7	2.95251
29.71	2.92652
29.72	2.91567
29.73	2.92949
29.74	2.9512
29.75	2.95482
29.76	2.93146
29.77	2.91304
29.78	2.90119
29.79	2.92817
29.8	2.90909
29.81	2.91534
29.82	2.94626
29.83	2.94297
29.84	2.93935
29.85	2.95317
29.86	2.96435
29.87	2.95218
29.88	2.96896
29.89	2.97455
29.9	2.9512
29.91	2.9512
29.92	2.93771
29.93	2.94462
29.94	2.93672
29.95	2.91041
29.96	2.94231
29.97	2.941
29.98	2.92784
29.99	2.90448
30	2.9206
30.01	2.93047
30.02	2.9535
30.03	2.95383
30.04	2.94626
30.05	2.93475
30.06	2.92258
30.07	2.90021
30.08	2.93771
30.09	2.92784
30.1	2.90383
30.11	2.91534
30.12	2.91468
30.13	2.94396
30.14	2.9308
30.15	2.93639
30.16	2.95284
30.17	2.93047
30.18	2.94725
30.19	2.93475
30.2	2.93639
30.21	2.89758
30.22	2.94297
30.23	2.90251
30.24	2.91567
30.25	2.9206
30.26	2.93606
30.27	2.93212
30.28	2.93113
30.29	2.95449
30.3	2.95284
30.31	2.91962
30.32	2.93179
30.33	2.96863
30.34	2.9581
30.35	2.92126
30.36	2.92192
30.37	2.9512
30.38	2.96008
30.39	2.93146
30.4	2.95054
30.41	2.91863
30.42	2.94067
30.43	2.94889
30.44	2.9456
30.45	2.94725
30.46	2.98047
30.47	2.93508
30.48	2.90448
30.49	2.94889
30.5	2.93146
30.51	2.91995
30.52	2.95284
30.53	2.95514
30.54	2.92159
30.55	2.93277
30.56	2.94758
30.57	2.93771
30.58	2.91995
30.59	2.95876
30.6	2.97291
30.61	2.95153
30.62	2.93968
30.63	2.90185
30.64	2.92883
30.65	2.9206
30.66	2.94264
30.67	2.98771
30.68	2.94199
30.69	2.93771
30.7	2.92718
30.71	2.94856
30.72	2.92422
30.73	2.97093
30.74	2.93935
30.75	2.89856
30.76	2.92324
30.77	2.90448
30.78	2.90547
30.79	2.9331
30.8	2.93146
30.81	2.9387
30.82	2.92422
30.83	2.9535
30.84	2.91863
30.85	2.96041
30.86	2.94429
30.87	2.93409
30.88	2.93409
30.89	2.95087
30.9	2.916
30.91	2.94955
30.92	2.96699
30.93	2.94034
30.94	2.92587
30.95	2.92587
30.96	2.90975
30.97	2.90514
30.98	2.93935
30.99	2.94692
31	2.91172
31.01	2.94264
31.02	2.93113
31.03	2.95712
31.04	2.91995
31.05	2.95482
31.06	2.94363
31.07	2.93508
31.08	2.93146
31.09	2.94166
31.1	2.96271
31.11	2.9262
31.12	2.93672
31.13	2.9637
31.14	2.93738
31.15	2.95087
31.16	2.93146
31.17	2.92751
31.18	2.90383
31.19	2.93212
31.2	2.91896
31.21	2.94264
31.22	2.96633
31.23	2.93705
31.24	2.92949
31.25	2.92225
31.26	2.93409
31.27	2.93442
31.28	2.90514
31.29	2.916
31.3	2.9433
31.31	2.93705
31.32	2.95383
31.33	2.93738
31.34	2.91731
31.35	2.91698
31.36	2.92192
31.37	2.91764
31.38	2.89659
31.39	2.9535
31.4	2.92324
31.41	2.90021
31.42	2.94199
31.43	2.97718
31.44	2.92422
31.45	2.90481
31.46	2.92093
31.47	2.94133
31.48	2.91567
31.49	2.92324
31.5	2.93639
31.51	2.92751
31.52	2.90843
31.53	2.95909
31.54	2.93409
31.55	2.91337
31.56	2.93245
31.57	2.94659
31.58	2.92817
31.59	2.92949
31.6	2.93968
31.61	2.93146
31.62	2.95218
31.63	2.95514
31.64	2.94429
31.65	2.94856
31.66	2.92587
31.67	2.93442
31.68	2.92817
31.69	2.94166
31.7	2.91172
31.71	2.91008
31.72	2.91534
31.73	2.91633
31.74	2.90054
31.75	2.92685
31.76	2.93705
31.77	2.94001
31.78	2.92455
31.79	2.94133
31.8	2.93014
31.81	2.93837
31.82	2.9262
31.83	2.91172
31.84	2.94593
31.85	2.9081
31.86	2.92981
31.87	2.93146
31.88	2.92126
31.89	2.93541
31.9	2.91633
31.91	2.93508
31.92	2.9081
31.93	2.95482
31.94	2.94297
31.95	2.92159
31.96	2.93179
31.97	2.9262
31.98	2.93146
31.99	2.90481
32	2.93738
32.01	2.94955
32.02	2.92949
32.03	2.92981
32.04	2.93475
32.05	2.916
32.06	2.92883
32.07	2.90481
32.08	2.91764
32.09	2.90843
32.1	2.9331
32.11	2.94758
32.12	2.95251
32.13	2.9387
32.14	2.93343
32.15	2.9058
32.16	2.88968
32.17	2.91435
32.18	2.92949
32.19	2.91929
32.2	2.9285
32.21	2.92718
32.22	2.94528
32.23	2.93277
32.24	2.92883
32.25	2.91008
32.26	2.90613
32.27	2.92751
32.28	2.94363
32.29	2.9081
32.3	2.8956
32.31	2.92389
32.32	2.96172
32.33	2.95745
32.34	2.92751
32.35	2.9331
32.36	2.90777
32.37	2.93179
32.38	2.93212
32.39	2.94593
32.4	2.94034
32.41	2.9535
32.42	2.93146
32.43	2.92554
32.44	2.90975
32.45	2.94199
32.46	2.92521
32.47	2.92126
32.48	2.94067
32.49	2.93508
32.5	2.92554
32.51	2.9512
32.52	2.90547
32.53	2.95383
32.54	2.95317
32.55	2.93968
32.56	2.9433
32.57	2.92817
32.58	2.92554
32.59	2.94396
32.6	2.93903
32.61	2.96008
32.62	2.95646
32.63	2.93212
32.64	2.92126
32.65	2.9183
32.66	2.94659
32.67	2.90087
32.68	2.89462
32.69	2.93475
32.7	2.90251
32.71	2.92718
32.72	2.91764
32.73	2.88705
32.74	2.91995
32.75	2.93508
32.76	2.94626
32.77	2.93146
32.78	2.9058
32.79	2.93771
32.8	2.94396
32.81	2.95087
32.82	2.93738
32.83	2.93245
32.84	2.94199
32.85	2.92027
32.86	2.95679
32.87	2.97159
32.88	2.94231
32.89	2.92258
32.9	2.92652
32.91	2.93606
32.92	2.94725
32.93	2.916
32.94	2.92093
32.95	2.93343
32.96	2.91896
32.97	2.92126
32.98	2.9035
32.99	2.92718
33	2.92751
33.01	2.92949
33.02	2.92981
33.03	2.93639
33.04	2.93606
33.05	2.93606
33.06	2.94725
33.07	2.94264
33.08	2.94429
33.09	2.94297
33.1	2.97389
33.11	2.96139
33.12	2.93738
33.13	2.91501
33.14	2.90218
33.15	2.93047
33.16	2.94429
33.17	2.91995
33.18	2.91764
33.19	2.92192
33.2	2.92981
33.21	2.92225
33.22	2.94462
33.23	2.94001
33.24	2.90185
33.25	2.90909
33.26	2.92751
33.27	2.92521
33.28	2.94363
33.29	2.97028
33.3	2.94429
33.31	2.95416
33.32	2.91962
33.33	2.90383
33.34	2.9331
33.35	2.93212
33.36	2.91797
33.37	2.92027
33.38	2.93376
33.39	2.89725
33.4	2.92488
33.41	2.92916
33.42	2.92258
33.43	2.92356
33.44	2.91073
33.45	2.91863
33.46	2.91468
33.47	2.94363
33.48	2.95054
33.49	2.95021
33.5	2.94133
33.51	2.93574
33.52	2.92554
33.53	2.91106
33.54	2.92817
33.55	2.90876
33.56	2.93146
33.57	2.91567
33.58	2.91106
33.59	2.91962
33.6	2.93968
33.61	2.96172
33.62	2.91797
33.63	2.92126
33.64	2.93968
33.65	2.92981
33.66	2.9035
33.67	2.92883
33.68	2.88968
33.69	2.92291
33.7	2.90646
33.71	2.89429
33.72	2.94199
33.73	2.93343
33.74	2.95646
33.75	2.93146
33.76	2.95613
33.77	2.91962
33.78	2.92225
33.79	2.93212
33.8	2.93277
33.81	2.93113
33.82	2.93639
33.83	2.9206
33.84	2.92751
33.85	2.93113
33.86	2.94659
33.87	2.91929
33.88	2.93245
33.89	2.92817
33.9	2.91501
33.91	2.92718
33.92	2.94199
33.93	2.91501
33.94	2.90119
33.95	2.91896
33.96	2.94988
33.97	2.94166
33.98	2.91698
33.99	2.93014
34	2.92455
34.01	2.90185
34.02	2.90185
34.03	2.91337
34.04	2.92817
34.05	2.93409
34.06	2.9308
34.07	2.92685
34.08	2.92685
34.09	2.96041
34.1	2.94593
34.11	2.93376
34.12	2.9387
34.13	2.9285
34.14	2.92258
34.15	2.91698
34.16	2.93343
34.17	2.94067
34.18	2.95942
34.19	2.9637
34.2	2.95909
34.21	2.93409
34.22	2.95284
34.23	2.94462
34.24	2.93113
34.25	2.92751
34.26	2.92554
34.27	2.94626
34.28	2.9206
34.29	2.92455
34.3	2.91139
34.31	2.89856
34.32	2.91304
34.33	2.93277
34.34	2.93705
34.35	2.92817
34.36	2.92817
34.37	2.93146
34.38	2.92192
34.39	2.90481
34.4	2.93574
34.41	2.89198
34.42	2.91863
34.43	2.91402
34.44	2.93343
34.45	2.90843
34.46	2.90416
34.47	2.93047
34.48	2.94133
34.49	2.9183
34.5	2.95547
34.51	2.96205
34.52	2.94824
34.53	2.93245
34.54	2.96271
34.55	2.93343
34.56	2.95153
34.57	2.93672
34.58	2.94856
34.59	2.90087
34.6	2.91337
34.61	2.94955
34.62	2.93113
34.63	2.91863
34.64	2.93738
34.65	2.92718
34.66	2.966
34.67	2.94824
34.68	2.8831
34.69	2.90777
34.7	2.91337
34.71	2.94429
34.72	2.9285
34.73	2.95021
34.74	2.95317
34.75	2.94067
34.76	2.90481
34.77	2.86008
34.78	2.89823
34.79	2.90876
34.8	2.93475
34.81	2.92685
34.82	2.92027
34.83	2.93047
34.84	2.92488
34.85	2.93277
34.86	2.92949
34.87	2.91797
34.88	2.89856
34.89	2.91041
34.9	2.93903
34.91	2.94922
34.92	2.94495
34.93	2.91106
34.94	2.91041
34.95	2.94034
34.96	2.94297
34.97	2.92916
34.98	2.92751
34.99	2.9387
35	2.90317
35.01	2.95021
35.02	2.96995
35.03	2.90909
35.04	2.91139
35.05	2.92225
35.06	2.94429
35.07	2.95416
35.08	2.94659
35.09	2.96041
35.1	2.91435
35.11	2.94824
35.12	2.92291
35.13	2.92258
35.14	2.94133
35.15	2.93245
35.16	2.89988
35.17	2.92159
35.18	2.95185
35.19	2.94429
35.2	2.93245
35.21	2.9262
35.22	2.94034
35.23	2.93212
35.24	2.93968
35.25	2.95646
35.26	2.90909
35.27	2.92258
35.28	2.91797
35.29	2.92488
35.3	2.89297
35.31	2.91172
35.32	2.93475
35.33	2.9308
35.34	2.90843
35.35	2.94297
35.36	2.9081
35.37	2.9285
35.38	2.94758
35.39	2.94791
35.4	2.91929
35.41	2.91929
35.42	2.90448
35.43	2.94297
35.44	2.9262
35.45	2.91995
35.46	2.90876
35.47	2.93475
35.48	2.92521
35.49	2.89725
35.5	2.91995
35.51	2.93343
35.52	2.91238
35.53	2.94264
35.54	2.92883
35.55	2.9262
35.56	2.94495
35.57	2.93935
35.58	2.97389
35.59	2.92356
35.6	2.92718
35.61	2.93705
35.62	2.91106
35.63	2.87784
35.64	2.941
35.65	2.9206
35.66	2.941
35.67	2.93014
35.68	2.94264
35.69	2.91435
35.7	2.92685
35.71	2.90712
35.72	2.9387
35.73	2.94955
35.74	2.93442
35.75	2.91567
35.76	2.91205
35.77	2.91205
35.78	2.91435
35.79	2.92455
35.8	2.95514
35.81	2.9387
35.82	2.91271
35.83	2.90547
35.84	2.91238
35.85	2.9081
35.86	2.90218
35.87	2.93212
35.88	2.91666
35.89	2.95613
35.9	2.94396
35.91	2.90942
35.92	2.90514
35.93	2.93639
35.94	2.93903
35.95	2.91435
35.96	2.92751
35.97	2.9262
35.98	2.93935
35.99	2.92455
36	2.91534
36.01	2.92751
36.02	2.94495
36.03	2.93376
36.04	2.93475
36.05	2.90416
36.06	2.92027
36.07	2.97949
36.08	2.9387
36.09	2.92916
36.1	2.96271
36.11	2.92587
36.12	2.94593
36.13	2.93903
36.14	2.90942
36.15	2.91106
36.16	2.92521
36.17	2.92488
36.18	2.93606
36.19	2.93738
36.2	2.91106
36.21	2.90152
36.22	2.90646
36.23	2.96699
36.24	2.90481
36.25	2.93475
36.26	2.92324
36.27	2.92389
36.28	2.92258
36.29	2.9206
36.3	2.90416
36.31	2.92521
36.32	2.91995
36.33	2.93146
36.34	2.93343
36.35	2.92554
36.36	2.95514
36.37	2.93903
36.38	2.92389
36.39	2.92027
36.4	2.90613
36.41	2.91238
36.42	2.90745
36.43	2.9183
36.44	2.96271
36.45	2.95942
36.46	2.9331
36.47	2.92784
36.48	2.91633
36.49	2.90284
36.5	2.93672
36.51	2.91764
36.52	2.94725
36.53	2.93409
36.54	2.93212
36.55	2.88212
36.56	2.93475
36.57	2.93376
36.58	2.93903
36.59	2.93705
36.6	2.90481
36.61	2.94824
36.62	2.90613
36.63	2.93212
36.64	2.92258
36.65	2.95514
36.66	2.94067
36.67	2.92751
36.68	2.90021
36.69	2.93014
36.7	2.92291
36.71	2.93541
36.72	2.9206
36.73	2.91764
36.74	2.91468
36.75	2.91205
36.76	2.92652
36.77	2.95251
36.78	2.94495
36.79	2.95613
36.8	2.93014
36.81	2.93672
36.82	2.95021
36.83	2.95843
36.84	2.94922
36.85	2.92422
36.86	2.90876
36.87	2.95317
36.88	2.92093
36.89	2.95876
36.9	2.91041
36.91	2.94955
36.92	2.93475
36.93	2.94593
36.94	2.97422
36.95	2.94429
36.96	2.95185
36.97	2.93574
36.98	2.91534
36.99	2.92027
37	2.91468
37.01	2.9456
37.02	2.91962
37.03	2.92817
37.04	2.941
37.05	2.93574
37.06	2.91304
37.07	2.92916
37.08	2.9081
37.09	2.91205
37.1	2.91172
37.11	2.93606
37.12	2.93738
37.13	2.93343
37.14	2.94856
37.15	2.92981
37.16	2.90712
37.17	2.89593
37.18	2.95876
37.19	2.94692
37.2	2.96468
37.21	2.93277
37.22	2.91567
37.23	2.95251
37.24	2.9512
37.25	2.94166
37.26	2.93113
37.27	2.92652
37.28	2.91863
37.29	2.91962
37.3	2.96172
37.31	2.93047
37.32	2.92389
37.33	2.92291
37.34	2.93245
37.35	2.94889
37.36	2.93968
37.37	2.93935
37.38	2.9387
37.39	2.94133
37.4	2.94593
37.41	2.93212
37.42	2.91337
37.43	2.90712
37.44	2.94528
37.45	2.93245
37.46	2.93639
37.47	2.9285
37.48	2.93837
37.49	2.9456
37.5	2.93014
37.51	2.91633
37.52	2.91534
37.53	2.89791
37.54	2.91501
37.55	2.91962
37.56	2.93738
37.57	2.92258
37.58	2.92784
37.59	2.95449
37.6	2.94001
37.61	2.9183
37.62	2.91238
37.63	2.94034
37.64	2.91962
37.65	2.9058
37.66	2.8956
37.67	2.93541
37.68	2.93606
37.69	2.91073
37.7	2.94396
37.71	2.92817
37.72	2.92981
37.73	2.91731
37.74	2.88672
37.75	2.92192
37.76	2.92291
37.77	2.91962
37.78	2.92488
37.79	2.91172
37.8	2.95284
37.81	2.89593
37.82	2.93409
37.83	2.94791
37.84	2.9558
37.85	2.92225
37.86	2.96337
37.87	2.93409
37.88	2.9331
37.89	2.93903
37.9	2.95218
37.91	2.91073
37.92	2.92422
37.93	2.92916
37.94	2.93212
37.95	2.93014
37.96	2.92192
37.97	2.93738
37.98	2.93245
37.99	2.92784
38	2.95218
38.01	2.9331
38.02	2.91962
38.03	2.93212
38.04	2.91962
38.05	2.93245
38.06	2.916
38.07	2.93442
38.08	2.92718
38.09	2.96534
38.1	2.94626
38.11	2.9387
38.12	2.92521
38.13	2.93475
38.14	2.93442
38.15	2.93245
38.16	2.91797
38.17	2.9433
38.18	2.95712
38.19	2.94067
38.2	2.94856
38.21	2.94889
38.22	2.95942
38.23	2.94297
38.24	2.91238
38.25	2.90745
38.26	2.90777
38.27	2.93047
38.28	2.9058
38.29	2.89889
38.3	2.90942
38.31	2.93574
38.32	2.90054
38.33	2.90416
38.34	2.93376
38.35	2.89791
38.36	2.92718
38.37	2.94725
38.38	2.92488
38.39	2.90843
38.4	2.92916
38.41	2.93541
38.42	2.91731
38.43	2.94067
38.44	2.96041
38.45	2.93771
38.46	2.96304
38.47	2.90218
38.48	2.92258
38.49	2.96435
38.5	2.93606
38.51	2.93771
38.52	2.95416
38.53	2.94363
38.54	2.95251
38.55	2.9387
38.56	2.93409
38.57	2.89856
38.58	2.9206
38.59	2.94264
38.6	2.93113
38.61	2.94133
38.62	2.93409
38.63	2.92981
38.64	2.88869
38.65	2.90317
38.66	2.9137
38.67	2.94264
38.68	2.89001
38.69	2.92192
38.7	2.93212
38.71	2.94264
38.72	2.92784
38.73	2.9308
38.74	2.9081
38.75	2.94725
38.76	2.93343
38.77	2.94396
38.78	2.94791
38.79	2.93574
38.8	2.9206
38.81	2.92027
38.82	2.94495
38.83	2.90646
38.84	2.93376
38.85	2.95778
38.86	2.93113
38.87	2.90712
38.88	2.9137
38.89	2.91106
38.9	2.92093
38.91	2.941
38.92	2.92718
38.93	2.91666
38.94	2.91205
38.95	2.92916
38.96	2.93837
38.97	2.92093
38.98	2.9331
38.99	2.92225
39	2.88738
39.01	2.92949
39.02	2.93903
39.03	2.93047
39.04	2.94528
39.05	2.9081
39.06	2.90646
39.07	2.87455
39.08	2.93014
39.09	2.90021
39.1	2.941
39.11	2.97291
39.12	2.90843
39.13	2.90712
39.14	2.89593
39.15	2.95021
39.16	2.96304
39.17	2.93508
39.18	2.90679
39.19	2.90975
39.2	2.9308
39.21	2.941
39.22	2.92883
39.23	2.92093
39.24	2.88606
39.25	2.91995
39.26	2.93409
39.27	2.95646
39.28	2.92356
39.29	2.9387
39.3	2.94791
39.31	2.94758
39.32	2.93672
39.33	2.95021
39.34	2.98738
39.35	2.95449
39.36	2.90679
39.37	2.93245
39.38	2.93277
39.39	2.94692
39.4	2.94166
39.41	2.91304
39.42	2.93047
39.43	2.92916
39.44	2.95021
39.45	2.90185
39.46	2.91337
39.47	2.92784
39.48	2.94626
39.49	2.92784
39.5	2.97521
39.51	2.95153
39.52	2.95679
39.53	2.93606
39.54	2.93409
39.55	2.90251
39.56	2.90876
39.57	2.92949
39.58	2.90876
39.59	2.93245
39.6	2.93508
39.61	2.9433
39.62	2.9308
39.63	2.9331
39.64	2.94922
39.65	2.96797
39.66	2.93771
39.67	2.93738
39.68	2.89166
39.69	2.92356
39.7	2.94824
39.71	2.9331
39.72	2.93541
39.73	2.90317
39.74	2.95054
39.75	2.90843
39.76	2.94297
39.77	2.93705
39.78	2.93376
39.79	2.93935
39.8	2.95613
39.81	2.93113
39.82	2.94824
39.83	2.89462
39.84	2.90876
39.85	2.91698
39.86	2.93738
39.87	2.89264
39.88	2.88968
39.89	2.91995
39.9	2.90975
39.91	2.91238
39.92	2.93014
39.93	2.9558
39.94	2.92817
39.95	2.93277
39.96	2.96238
39.97	2.92291
39.98	2.91534
39.99	2.9456
40	2.96435
40.01	2.93935
40.02	2.89166
40.03	2.89791
40.04	2.90613
40.05	2.90613
40.06	2.91337
40.07	2.93475
40.08	2.92521
40.09	2.93212
40.1	2.91929
40.11	2.91567
40.12	2.92159
40.13	2.93146
40.14	2.91797
40.15	2.9387
40.16	2.95482
40.17	2.92422
40.18	2.89593
40.19	2.90876
40.2	2.93738
40.21	2.91567
40.22	2.94626
40.23	2.91073
40.24	2.91238
40.25	2.90909
40.26	2.90712
40.27	2.93442
40.28	2.92981
40.29	2.88672
40.3	2.92225
40.31	2.91731
40.32	2.90679
40.33	2.91501
40.34	2.90547
40.35	2.91698
40.36	2.91731
40.37	2.93968
40.38	2.93014
40.39	2.91929
40.4	2.91008
40.41	2.90975
40.42	2.91172
40.43	2.92027
40.44	2.95679
40.45	2.94001
40.46	2.9308
40.47	2.89659
40.48	2.91304
40.49	2.92883
40.5	2.93245
40.51	2.94297
40.52	2.91896
40.53	2.92356
40.54	2.93113
40.55	2.93508
40.56	2.90745
40.57	2.92126
40.58	2.94824
40.59	2.89133
40.6	2.89429
40.61	2.93409
40.62	2.92981
40.63	2.93672
40.64	2.91468
40.65	2.94955
40.66	2.95153
40.67	2.95909
40.68	2.916
40.69	2.92258
40.7	2.92192
40.71	2.91435
40.72	2.93771
40.73	2.9308
40.74	2.89527
40.75	2.91271
40.76	2.89429
40.77	2.88837
40.78	2.92324
40.79	2.90448
40.8	2.92488
40.81	2.93903
40.82	2.93935
40.83	2.95613
40.84	2.9058
40.85	2.92389
40.86	2.90777
40.87	2.92324
40.88	2.89527
40.89	2.91468
40.9	2.91929
40.91	2.91764
40.92	2.93771
40.93	2.92455
40.94	2.91863
40.95	2.92126
40.96	2.9262
40.97	2.93014
40.98	2.96139
40.99	2.9433
41	2.93047
41.01	2.94462
41.02	2.93113
41.03	2.90876
41.04	2.93343
41.05	2.93903
41.06	2.93113
41.07	2.93376
41.08	2.92488
41.09	2.94133
41.1	2.95185
41.11	2.91205
41.12	2.8854
41.13	2.94659
41.14	2.98014
41.15	2.94889
41.16	2.92126
41.17	2.93245
41.18	2.92685
41.19	2.88179
41.2	2.91896
41.21	2.92685
41.22	2.93212
41.23	2.91698
41.24	2.95383
41.25	2.91666
41.26	2.94166
41.27	2.9456
41.28	2.93705
41.29	2.91666
41.3	2.91106
41.31	2.90185
41.32	2.91304
41.33	2.93376
41.34	2.96304
41.35	2.91896
41.36	2.93212
41.37	2.91501
41.38	2.91534
41.39	2.92784
41.4	2.91633
41.41	2.91304
41.42	2.93508
41.43	2.89626
41.44	2.93376
41.45	2.94791
41.46	2.94856
41.47	2.93442
41.48	2.93738
41.49	2.92817
41.5	2.93047
41.51	2.90843
41.52	2.91073
41.53	2.91304
41.54	2.91106
41.55	2.91896
41.56	2.91995
41.57	2.94166
41.58	2.90679
41.59	2.91962
41.6	2.92422
41.61	2.93146
41.62	2.92949
41.63	2.93935
41.64	2.91501
41.65	2.92817
41.66	2.92949
41.67	2.92949
41.68	2.92225
41.69	2.92126
41.7	2.93738
41.71	2.92981
41.72	2.90416
41.73	2.89988
41.74	2.93541
41.75	2.9285
41.76	2.93014
41.77	2.91567
41.78	2.9331
41.79	2.93343
41.8	2.93409
41.81	2.89758
41.82	2.93541
41.83	2.91304
41.84	2.90481
41.85	2.91797
41.86	2.94462
41.87	2.93606
41.88	2.91534
41.89	2.90547
41.9	2.91106
41.91	2.93771
41.92	2.9387
41.93	2.94166
41.94	2.93047
41.95	2.91633
41.96	2.94462
41.97	2.94166
41.98	2.93014
41.99	2.92817
42	2.91698
42.01	2.92817
42.02	2.95482
42.03	2.92981
42.04	2.90284
42.05	2.9262
42.06	2.90843
42.07	2.90021
42.08	2.90646
42.09	2.94889
42.1	2.92488
42.11	2.92652
42.12	2.92389
42.13	2.9206
42.14	2.92324
42.15	2.88343
42.16	2.93541
42.17	2.9308
42.18	2.91304
42.19	2.91929
42.2	2.9262
42.21	2.92784
42.22	2.92784
42.23	2.92126
42.24	2.94199
42.25	2.95153
42.26	2.92324
42.27	2.91304
42.28	2.90843
42.29	2.89133
42.3	2.96074
42.31	2.91534
42.32	2.89429
42.33	2.95482
42.34	2.92521
42.35	2.90514
42.36	2.89429
42.37	2.88935
42.38	2.94528
42.39	2.92751
42.4	2.91172
42.41	2.93574
42.42	2.92784
42.43	2.90613
42.44	2.8956
42.45	2.91896
42.46	2.93343
42.47	2.91929
42.48	2.89429
42.49	2.92356
42.5	2.94001
42.51	2.94166
42.52	2.94034
42.53	2.93903
42.54	2.93376
42.55	2.93047
42.56	2.92587
42.57	2.92554
42.58	2.91402
42.59	2.916
42.6	2.93277
42.61	2.9206
42.62	2.93475
42.63	2.9206
42.64	2.94659
42.65	2.94166
42.66	2.93146
42.67	2.92291
42.68	2.92258
42.69	2.92324
42.7	2.94988
42.71	2.95778
42.72	2.93212
42.73	2.94758
42.74	2.93541
42.75	2.90218
42.76	2.89429
42.77	2.89791
42.78	2.90383
42.79	2.9433
42.8	2.92916
42.81	2.93014
42.82	2.93903
42.83	2.90416
42.84	2.9387
42.85	2.93014
42.86	2.92192
42.87	2.92356
42.88	2.8956
42.89	2.92784
42.9	2.88804
42.91	2.93672
42.92	2.91731
42.93	2.90646
42.94	2.92554
42.95	2.95975
42.96	2.93705
42.97	2.93146
42.98	2.94725
42.99	2.94528
43	2.95449
43.01	2.96074
43.02	2.95284
43.03	2.94659
43.04	2.98014
43.05	2.96929
43.06	2.94297
43.07	2.96764
43.08	2.92916
43.09	2.9387
43.1	2.9535
43.11	2.92751
43.12	2.91534
43.13	2.95317
43.14	2.92949
43.15	2.9206
43.16	2.94199
43.17	2.9058
43.18	2.89856
43.19	2.93475
43.2	2.93968
43.21	2.92521
43.22	2.93146
43.23	2.95613
43.24	2.94396
43.25	2.9558
43.26	2.96172
43.27	2.91797
43.28	2.91863
43.29	2.96238
43.3	2.92291
43.31	2.93376
43.32	2.94297
43.33	2.95383
43.34	2.9456
43.35	2.91304
43.36	2.91534
43.37	2.93903
43.38	2.94791
43.39	2.9081
43.4	2.92389
43.41	2.92817
43.42	2.91995
43.43	2.90251
43.44	2.93376
43.45	2.92356
43.46	2.91896
43.47	2.90613
43.48	2.91962
43.49	2.9081
43.5	2.90317
43.51	2.92784
43.52	2.95547
43.53	2.93277
43.54	2.92718
43.55	2.91468
43.56	2.93574
43.57	2.93014
43.58	2.91501
43.59	2.9308
43.6	2.90975
43.61	2.89725
43.62	2.94462
43.63	2.94824
43.64	2.9206
43.65	2.91106
43.66	2.91304
43.67	2.93837
43.68	2.89725
43.69	2.93968
43.7	2.92455
43.71	2.92718
43.72	2.93935
43.73	2.94231
43.74	2.96238
43.75	2.93442
43.76	2.94396
43.77	2.94758
43.78	2.91172
43.79	2.91764
43.8	2.91534
43.81	2.97291
43.82	2.90547
43.83	2.91633
43.84	2.92422
43.85	2.95251
43.86	2.91139
43.87	2.91402
43.88	2.92422
43.89	2.93672
43.9	2.93475
43.91	2.93047
43.92	2.9183
43.93	2.91435
43.94	2.91962
43.95	2.96929
43.96	2.93508
43.97	2.9637
43.98	2.92093
43.99	2.94889
44	2.9512
44.01	2.91797
44.02	2.88343
44.03	2.9206
44.04	2.92587
44.05	2.92718
44.06	2.94725
44.07	2.91435
44.08	2.93047
44.09	2.90613
44.1	2.91238
44.11	2.9137
44.12	2.92324
44.13	2.90416
44.14	2.93376
44.15	2.9285
44.16	2.93212
44.17	2.93705
44.18	2.92027
44.19	2.92718
44.2	2.92587
44.21	2.91896
44.22	2.9512
44.23	2.93047
44.24	2.96107
44.25	2.93376
44.26	2.93475
44.27	2.92258
44.28	2.90152
44.29	2.88837
44.3	2.91698
44.31	2.9512
44.32	2.92258
44.33	2.95284
44.34	2.92981
44.35	2.93903
44.36	2.94396
44.37	2.92521
44.38	2.95712
44.39	2.94001
44.4	2.92159
44.41	2.92784
44.42	2.93574
44.43	2.93113
44.44	2.93968
44.45	2.92488
44.46	2.91008
44.47	2.92258
44.48	2.93179
44.49	2.94824
44.5	2.9512
44.51	2.94988
44.52	2.92521
44.53	2.90284
44.54	2.9206
44.55	2.92093
44.56	2.91764
44.57	2.92718
44.58	2.91534
44.59	2.92751
44.6	2.94462
44.61	2.92751
44.62	2.95547
44.63	2.98442
44.64	2.91534
44.65	2.92883
44.66	2.90054
44.67	2.88573
44.68	2.92521
44.69	2.93245
44.7	2.9308
44.71	2.91238
44.72	2.87619
44.73	2.92324
44.74	2.92389
44.75	2.91468
44.76	2.94692
44.77	2.89922
44.78	2.91863
44.79	2.94166
44.8	2.95383
44.81	2.91666
44.82	2.93574
44.83	2.92422
44.84	2.89264
44.85	2.89692
44.86	2.91205
44.87	2.91205
44.88	2.91863
44.89	2.94001
44.9	2.92258
44.91	2.94297
44.92	2.93705
44.93	2.90712
44.94	2.94363
44.95	2.94133
44.96	2.92389
44.97	2.91402
44.98	2.90745
44.99	2.93639
45	2.95482
45.01	2.91962
45.02	2.9308
45.03	2.93146
45.04	2.93113
45.05	2.95087
45.06	2.9433
45.07	2.92916
45.08	2.95909
45.09	2.92587
45.1	2.9206
45.11	2.93935
45.12	2.95185
45.13	2.94659
45.14	2.92587
45.15	2.92916
45.16	2.93903
45.17	2.96205
45.18	2.92324
45.19	2.90152
45.2	2.93212
45.21	2.9581
45.22	2.95218
45.23	2.9433
45.24	2.93245
45.25	2.94922
45.26	2.94922
45.27	2.916
45.28	2.95087
45.29	2.93903
45.3	2.91435
45.31	2.91534
45.32	2.95054
45.33	2.93409
45.34	2.92949
45.35	2.91896
45.36	2.9558
45.37	2.93705
45.38	2.94528
45.39	2.91238
45.4	2.93113
45.41	2.95547
45.42	2.95745
45.43	2.92488
45.44	2.92356
45.45	2.93804
45.46	2.9285
45.47	2.90843
45.48	2.91041
45.49	2.92258
45.5	2.92916
45.51	2.89626
45.52	2.90218
45.53	2.92356
45.54	2.93047
45.55	2.90021
45.56	2.90745
45.57	2.92027
45.58	2.92521
45.59	2.95679
45.6	2.89955
45.61	2.92027
45.62	2.95942
45.63	2.92652
45.64	2.9262
45.65	2.9137
45.66	2.90087
45.67	2.90481
45.68	2.94264
45.69	2.93804
45.7	2.916
45.71	2.93903
45.72	2.94363
45.73	2.93014
45.74	2.91106
45.75	2.91995
45.76	2.95975
45.77	2.93508
45.78	2.91962
45.79	2.94889
45.8	2.89297
45.81	2.92718
45.82	2.941
45.83	2.94758
45.84	2.90251
45.85	2.93179
45.86	2.91534
45.87	2.91666
45.88	2.92981
45.89	2.94824
45.9	2.93672
45.91	2.95942
45.92	2.94659
45.93	2.93804
45.94	2.95876
45.95	2.916
45.96	2.92027
45.97	2.94034
45.98	2.95646
45.99	2.93672
46	2.94396
46.01	2.92718
46.02	2.93343
46.03	2.94659
46.04	2.95547
46.05	2.93113
46.06	2.94692
46.07	2.92455
46.08	2.90712
46.09	2.94824
46.1	2.93771
46.11	2.93146
46.12	2.89166
46.13	2.91501
46.14	2.92455
46.15	2.87554
46.16	2.91666
46.17	2.93574
46.18	2.94363
46.19	2.91304
46.2	2.93639
46.21	2.92521
46.22	2.93146
46.23	2.92356
46.24	2.90416
46.25	2.91797
46.26	2.9387
46.27	2.95153
46.28	2.92324
46.29	2.89856
46.3	2.92126
46.31	2.94593
46.32	2.94889
46.33	2.9637
46.34	2.96501
46.35	2.92916
46.36	2.95153
46.37	2.95514
46.38	2.91435
46.39	2.93837
46.4	2.93409
46.41	2.96107
46.42	2.9387
46.43	2.92422
46.44	2.92981
46.45	2.92225
46.46	2.93639
46.47	2.91764
46.48	2.93771
46.49	2.90547
46.5	2.91863
46.51	2.90284
46.52	2.93475
46.53	2.95218
46.54	2.95218
46.55	2.94593
46.56	2.95153
46.57	2.93508
46.58	2.93014
46.59	2.91435
46.6	2.93245
46.61	2.94528
46.62	2.98179
46.63	2.93113
46.64	2.92751
46.65	2.966
46.66	2.94692
46.67	2.93409
46.68	2.92718
46.69	2.90284
46.7	2.92751
46.71	2.9331
46.72	2.92916
46.73	2.93771
46.74	2.90317
46.75	2.9035
46.76	2.9262
46.77	2.92422
46.78	2.87587
46.79	2.92324
46.8	2.9433
46.81	2.96633
46.82	2.96403
46.83	2.9581
46.84	2.95547
46.85	2.93541
46.86	2.91073
46.87	2.91896
46.88	2.94264
46.89	2.93212
46.9	2.93968
46.91	2.9183
46.92	2.94856
46.93	2.97093
46.94	2.94264
46.95	2.93968
46.96	2.93837
46.97	2.92126
46.98	2.97653
46.99	2.97718
47	2.96468
47.01	2.96403
47.02	2.94231
47.03	2.95218
47.04	2.94922
47.05	2.93376
47.06	2.92488
47.07	2.89593
47.08	2.92027
47.09	2.90679
47.1	2.88113
47.11	2.91501
47.12	2.93475
47.13	2.95712
47.14	2.91995
47.15	2.91501
47.16	2.91501
47.17	2.94659
47.18	2.94199
47.19	2.93672
47.2	2.91139
47.21	2.94659
47.22	2.93212
47.23	2.95909
47.24	2.9262
47.25	2.93047
47.26	2.9581
47.27	2.92126
47.28	2.93903
47.29	2.91633
47.3	2.91337
47.31	2.90251
47.32	2.91205
47.33	2.94396
47.34	2.92554
47.35	2.93804
47.36	2.94133
47.37	2.94363
47.38	2.92488
47.39	2.91172
47.4	2.94166
47.41	2.91534
47.42	2.89889
47.43	2.90284
47.44	2.94528
47.45	2.94133
47.46	2.93376
47.47	2.91304
47.48	2.90613
47.49	2.93837
47.5	2.93376
47.51	2.93738
47.52	2.92981
47.53	2.90843
47.54	2.92455
47.55	2.91435
47.56	2.92488
47.57	2.91666
47.58	2.91995
47.59	2.9081
47.6	2.90547
47.61	2.90481
47.62	2.88902
47.63	2.93113
47.64	2.9331
47.65	2.9137
47.66	2.90481
47.67	2.94692
47.68	2.9456
47.69	2.941
47.7	2.89856
47.71	2.93113
47.72	2.9058
47.73	2.87521
47.74	2.92751
47.75	2.93672
47.76	2.92751
47.77	2.9183
47.78	2.92422
47.79	2.95021
47.8	2.95778
47.81	2.91435
47.82	2.90975
47.83	2.93113
47.84	2.90514
47.85	2.93541
47.86	2.92817
47.87	2.89396
47.88	2.92455
47.89	2.93968
47.9	2.93639
47.91	2.94462
47.92	2.94889
47.93	2.93409
47.94	2.94067
47.95	2.93212
47.96	2.89988
47.97	2.90251
47.98	2.89659
47.99	2.91995
48	2.91304
48.01	2.98705
48.02	2.93837
48.03	2.92521
48.04	2.92652
48.05	2.92521
48.06	2.95054
48.07	2.92093
48.08	2.94199
48.09	2.92981
48.1	2.92126
48.11	2.9308
48.12	2.91008
48.13	2.91896
48.14	2.92225
48.15	2.92718
48.16	2.92554
48.17	2.93541
48.18	2.92685
48.19	2.91567
48.2	2.92225
48.21	2.89429
48.22	2.9206
48.23	2.92751
48.24	2.93179
48.25	2.92685
48.26	2.94396
48.27	2.91567
48.28	2.91205
48.29	2.91797
48.3	2.95185
48.31	2.96172
48.32	2.92981
48.33	2.89659
48.34	2.92159
48.35	2.93935
48.36	2.93672
48.37	2.92488
48.38	2.93672
48.39	2.94264
48.4	2.92916
48.41	2.95547
48.42	2.94791
48.43	2.92488
48.44	2.9637
48.45	2.92027
48.46	2.92652
48.47	2.93771
48.48	2.93672
48.49	2.93277
48.5	2.93409
48.51	2.9081
48.52	2.89593
48.53	2.93146
48.54	2.94955
48.55	2.96008
48.56	2.93903
48.57	2.91962
48.58	2.90909
48.59	2.94528
48.6	2.92324
48.61	2.91929
48.62	2.9206
48.63	2.92126
48.64	2.95383
48.65	2.9285
48.66	2.89955
48.67	2.92916
48.68	2.94133
48.69	2.88442
48.7	2.88902
48.71	2.90448
48.72	2.94528
48.73	2.93935
48.74	2.9512
48.75	2.91337
48.76	2.89297
48.77	2.92718
48.78	2.9433
48.79	2.9331
48.8	2.93935
48.81	2.93606
48.82	2.93277
48.83	2.90218
48.84	2.96107
48.85	2.92949
48.86	2.90119
48.87	2.89988
48.88	2.89396
48.89	2.91698
48.9	2.93212
48.91	2.94133
48.92	2.92389
48.93	2.93113
48.94	2.92817
48.95	2.91172
48.96	2.89758
48.97	2.91797
48.98	2.95449
48.99	2.9081
49	2.91304
49.01	2.95021
49.02	2.94429
49.03	2.93705
49.04	2.94231
49.05	2.9081
49.06	2.88639
49.07	2.90251
49.08	2.90251
49.09	2.93113
49.1	2.92422
49.11	2.92784
49.12	2.92554
49.13	2.93409
49.14	2.92225
49.15	2.93541
49.16	2.9387
49.17	2.92784
49.18	2.89889
49.19	2.90481
49.2	2.88771
49.21	2.9308
49.22	2.95054
49.23	2.97521
49.24	2.91073
49.25	2.92488
49.26	2.9262
49.27	2.92291
49.28	2.94659
49.29	2.91172
49.3	2.91995
49.31	2.92554
49.32	2.91962
49.33	2.90251
49.34	2.93442
49.35	2.97093
49.36	2.93014
49.37	2.91666
49.38	2.9387
49.39	2.9206
49.4	2.891
49.41	2.92422
49.42	2.94725
49.43	2.91271
49.44	2.90251
49.45	2.93409
49.46	2.94001
49.47	2.91995
49.48	2.92751
49.49	2.8956
49.5	2.94429
49.51	2.93738
49.52	2.92027
49.53	2.91534
49.54	2.96534
49.55	2.91402
49.56	2.88475
49.57	2.93508
49.58	2.91534
49.59	2.90909
49.6	2.91731
49.61	2.94462
49.62	2.94264
49.63	2.95843
49.64	2.97159
49.65	2.90843
49.66	2.94922
49.67	2.94495
49.68	2.93672
49.69	2.9331
49.7	2.93113
49.71	2.91501
49.72	2.90876
49.73	2.91008
49.74	2.90942
49.75	2.91731
49.76	2.93508
49.77	2.93343
49.78	2.96534
49.79	2.93146
49.8	2.91304
49.81	2.941
49.82	2.90481
49.83	2.9081
49.84	2.92916
49.85	2.95514
49.86	2.94396
49.87	2.94429
49.88	2.92981
49.89	2.91205
49.9	2.90383
49.91	2.91172
49.92	2.93935
49.93	2.94133
49.94	2.93442
49.95	2.92291
49.96	2.92324
49.97	2.92949
49.98	2.9183
49.99	2.89889
50	2.92291
