"BIO-KINE ASCII FILE"
"_COMMENT"	"MOS-500 Spectrometer"
"_COMMENT"	"Kinetics measurement"
"_COMMENT"	"Y Unit : Volt,  X Unit : s"
"_COMMENT"	"Excitation wavelength : 380 nm"
"_COMMENT"	"Fentes bandwidth =  1 nm"
"_COMMENT"	"HV= 750V"
"_COMMENT"	"Timebase  1 =  .01 s   3001 pts"
"_SFM"	"SFM-400 /S  Advanced mode"
"_SFM"	"Ratio : S1: 2.5, S2: 0, S3: 0, S4: 1"
"_SFM"	"Content : S1: , S2: , S3: , S4:"
"_SFM"	"Concentration : S1: , S2: , S3: , S4:"
"_SFM"	"Total volume : 209 µl  Flow : 3.5 mL/s"
"_SFM"	"Acquisition start :  10 ms before stop"
"_SFM"	"cuve=FC-15, s1=10 ml , s2=10 ml , s3=10 ml , s4=1.9 ml"
"_UNITX"	"s"
"_UNITY"	"Volt"
"_DELTAX"	0
"_DATA"
1e-300	7.13488
0.01	7.65331
0.02	7.76351
0.03	7.67864
0.04	7.71022
0.05	7.70364
0.06	7.69311
0.07	7.72371
0.08	7.71581
0.09	7.72206
0.1	7.72042
0.11	7.72535
0.12	7.72963
0.13	7.71121
0.14	7.70331
0.15	7.72338
0.16	7.72469
0.17	7.71055
0.18	7.70496
0.19	7.69838
0.2	7.68522
0.21	7.69443
0.22	7.69081
0.23	7.67535
0.24	7.69739
0.25	7.70331
0.26	7.67601
0.27	7.68193
0.28	7.69048
0.29	7.67601
0.3	7.65923
0.31	7.66252
0.32	7.6668
0.33	7.65759
0.34	7.65364
0.35	7.64048
0.36	7.63226
0.37	7.62633
0.38	7.62206
0.39	7.62831
0.4	7.60528
0.41	7.6112
0.42	7.61055
0.43	7.60101
0.44	7.59311
0.45	7.56614
0.46	7.57732
0.47	7.58258
0.48	7.58324
0.49	7.56778
0.5	7.56318
0.51	7.58883
0.52	7.5737
0.53	7.56548
0.54	7.55824
0.55	7.52864
0.56	7.52239
0.57	7.54475
0.58	7.53982
0.59	7.53192
0.6	7.5214
0.61	7.51975
0.62	7.49804
0.63	7.50232
0.64	7.50232
0.65	7.50067
0.66	7.50363
0.67	7.49212
0.68	7.48324
0.69	7.47337
0.7	7.49245
0.71	7.46975
0.72	7.47107
0.73	7.46712
0.74	7.46219
0.75	7.47008
0.76	7.45396
0.77	7.42436
0.78	7.4237
0.79	7.42337
0.8	7.42501
0.81	7.43324
0.82	7.40988
0.83	7.40791
0.84	7.40955
0.85	7.39014
0.86	7.38028
0.87	7.3681
0.88	7.37107
0.89	7.35231
0.9	7.3533
0.91	7.36416
0.92	7.36843
0.93	7.35363
0.94	7.34541
0.95	7.34639
0.96	7.3487
0.97	7.326
0.98	7.30495
0.99	7.29738
1	7.29902
1.01	7.30922
1.02	7.29541
1.03	7.29606
1.04	7.28554
1.05	7.276
1.06	7.29442
1.07	7.27238
1.08	7.28389
1.09	7.27139
1.1	7.27008
1.11	7.23422
1.12	7.2408
1.13	7.24573
1.14	7.25363
1.15	7.23488
1.16	7.24376
1.17	7.22468
1.18	7.22698
1.19	7.20428
1.2	7.18817
1.21	7.18257
1.22	7.1908
1.23	7.2056
1.24	7.18126
1.25	7.18718
1.26	7.18685
1.27	7.14836
1.28	7.16843
1.29	7.15198
1.3	7.1579
1.31	7.14211
1.32	7.14606
1.33	7.14672
1.34	7.12599
1.35	7.11678
1.36	7.10658
1.37	7.09573
1.38	7.09343
1.39	7.08619
1.4	7.09507
1.41	7.09474
1.42	7.08849
1.43	7.07961
1.44	7.05527
1.45	7.06218
1.46	7.0556
1.47	7.06514
1.48	7.05954
1.49	7.05461
1.5	7.03389
1.51	7.02007
1.52	7.00625
1.53	7.02106
1.54	7.0306
1.55	6.99704
1.56	7.00033
1.57	6.99145
1.58	6.99967
1.59	6.9704
1.6	6.97138
1.61	6.96283
1.62	6.975
1.63	6.9329
1.64	6.93783
1.65	6.95395
1.66	6.94441
1.67	6.94112
1.68	6.93487
1.69	6.93191
1.7	6.92665
1.71	6.92829
1.72	6.90329
1.73	6.89211
1.74	6.89309
1.75	6.89243
1.76	6.89046
1.77	6.88882
1.78	6.88487
1.79	6.87928
1.8	6.85921
1.81	6.87237
1.82	6.86678
1.83	6.84803
1.84	6.82631
1.85	6.8296
1.86	6.82862
1.87	6.82566
1.88	6.81316
1.89	6.80723
1.9	6.80592
1.91	6.80822
1.92	6.79802
1.93	6.77829
1.94	6.77566
1.95	6.79473
1.96	6.79441
1.97	6.80329
1.98	6.79638
1.99	6.77664
2	6.76875
2.01	6.77269
2.02	6.76612
2.03	6.77039
2.04	6.74408
2.05	6.73421
2.06	6.74736
2.07	6.73881
2.08	6.73881
2.09	6.72598
2.1	6.71611
2.11	6.71348
2.12	6.69901
2.13	6.71447
2.14	6.69769
2.15	6.69407
2.16	6.68289
2.17	6.68026
2.18	6.66282
2.19	6.65559
2.2	6.66545
2.21	6.64934
2.22	6.66019
2.23	6.63552
2.24	6.62401
2.25	6.61973
2.26	6.61874
2.27	6.61743
2.28	6.62565
2.29	6.63519
2.3	6.62203
2.31	6.61907
2.32	6.58881
2.33	6.5967
2.34	6.58815
2.35	6.57565
2.36	6.58387
2.37	6.57006
2.38	6.56677
2.39	6.55854
2.4	6.56479
2.41	6.55986
2.42	6.54177
2.43	6.53815
2.44	6.54736
2.45	6.53848
2.46	6.53617
2.47	6.52894
2.48	6.53585
2.49	6.52203
2.5	6.48683
2.51	6.48091
2.52	6.49802
2.53	6.46907
2.54	6.46907
2.55	6.46446
2.56	6.47861
2.57	6.48387
2.58	6.46183
2.59	6.46479
2.6	6.46545
2.61	6.45854
2.62	6.44505
2.63	6.44012
2.64	6.42729
2.65	6.4263
2.66	6.40328
2.67	6.40459
2.68	6.41018
2.69	6.39308
2.7	6.39374
2.71	6.3888
2.72	6.40064
2.73	6.39078
2.74	6.38189
2.75	6.38124
2.76	6.35492
2.77	6.37038
2.78	6.36874
2.79	6.349
2.8	6.34472
2.81	6.34571
2.82	6.33551
2.83	6.34768
2.84	6.33814
2.85	6.33518
2.86	6.34374
2.87	6.32663
2.88	6.29998
2.89	6.29867
2.9	6.30163
2.91	6.29571
2.92	6.30623
2.93	6.28354
2.94	6.28321
2.95	6.29275
2.96	6.28025
2.97	6.26183
2.98	6.26215
2.99	6.26544
3	6.2536
3.01	6.24669
3.02	6.24932
3.03	6.25327
3.04	6.23321
3.05	6.21807
3.06	6.22696
3.07	6.21939
3.08	6.21347
3.09	6.21182
3.1	6.20788
3.11	6.19373
3.12	6.19702
3.13	6.17827
3.14	6.18222
3.15	6.19472
3.16	6.19538
3.17	6.17564
3.18	6.16741
3.19	6.17761
3.2	6.17465
3.21	6.16478
3.22	6.16676
3.23	6.15985
3.24	6.14603
3.25	6.1263
3.26	6.12695
3.27	6.13222
3.28	6.12827
3.29	6.13222
3.3	6.11412
3.31	6.12465
3.32	6.11906
3.33	6.10162
3.34	6.11544
3.35	6.08847
3.36	6.09143
3.37	6.0957
3.38	6.08649
3.39	6.07432
3.4	6.06807
3.41	6.07596
3.42	6.05623
3.43	6.07333
3.44	6.05261
3.45	6.04077
3.46	6.03649
3.47	6.04175
3.48	6.03649
3.49	6.0457
3.5	6.03386
3.51	6.0207
3.52	6.01281
3.53	6.01116
3.54	6.01313
3.55	6.01412
3.56	6.00327
3.57	5.97563
3.58	5.99603
3.59	5.98945
3.6	5.97892
3.61	5.98123
3.62	5.96478
3.63	5.96445
3.64	5.95984
3.65	5.95326
3.66	5.95162
3.67	5.9605
3.68	5.95491
3.69	5.9355
3.7	5.92958
3.71	5.93484
3.72	5.93484
3.73	5.93287
3.74	5.92267
3.75	5.91905
3.76	5.92136
3.77	5.90425
3.78	5.89767
3.79	5.90589
3.8	5.8901
3.81	5.8753
3.82	5.87826
3.83	5.88254
3.84	5.88484
3.85	5.87892
3.86	5.86576
3.87	5.87859
3.88	5.85918
3.89	5.87267
3.9	5.8605
3.91	5.84306
3.92	5.83912
3.93	5.84833
3.94	5.84471
3.95	5.83385
3.96	5.83517
3.97	5.83155
3.98	5.79964
3.99	5.80359
4	5.79635
4.01	5.80359
4.02	5.80129
4.03	5.79273
4.04	5.77925
4.05	5.76082
4.06	5.77661
4.07	5.77629
4.08	5.77925
4.09	5.76181
4.1	5.78221
4.11	5.76905
4.12	5.74997
4.13	5.74701
4.14	5.74339
4.15	5.74503
4.16	5.74964
4.17	5.74043
4.18	5.73286
4.19	5.72332
4.2	5.71543
4.21	5.70688
4.22	5.70622
4.23	5.70326
4.24	5.70457
4.25	5.69437
4.26	5.70095
4.27	5.70326
4.28	5.69898
4.29	5.68286
4.3	5.68122
4.31	5.67957
4.32	5.67233
4.33	5.67858
4.34	5.66214
4.35	5.66312
4.36	5.66148
4.37	5.65128
4.38	5.64536
4.39	5.63681
4.4	5.63911
4.41	5.64372
4.42	5.62793
4.43	5.60523
4.44	5.60358
4.45	5.6197
4.46	5.62299
4.47	5.61016
4.48	5.59273
4.49	5.58911
4.5	5.59042
4.51	5.59536
4.52	5.59898
4.53	5.59207
4.54	5.59075
4.55	5.57891
4.56	5.58417
4.57	5.57233
4.58	5.56937
4.59	5.56937
4.6	5.57069
4.61	5.57332
4.62	5.55523
4.63	5.56246
4.64	5.54602
4.65	5.54371
4.66	5.55884
4.67	5.53615
4.68	5.54832
4.69	5.52726
4.7	5.51838
4.71	5.52266
4.72	5.52003
4.73	5.50983
4.74	5.5118
4.75	5.5197
4.76	5.51213
4.77	5.51312
4.78	5.51608
4.79	5.49865
4.8	5.50851
4.81	5.51476
4.82	5.49404
4.83	5.48022
4.84	5.47332
4.85	5.47595
4.86	5.48055
4.87	5.45325
4.88	5.44667
4.89	5.4391
4.9	5.45818
4.91	5.46838
4.92	5.44799
4.93	5.44733
4.94	5.44206
4.95	5.44733
4.96	5.4493
4.97	5.43647
4.98	5.43483
4.99	5.42627
5	5.43812
5.01	5.41575
5.02	5.42792
5.03	5.42134
5.04	5.41608
5.05	5.40391
5.06	5.40029
5.07	5.41048
5.08	5.40358
5.09	5.40687
5.1	5.39108
5.11	5.39206
5.12	5.37858
5.13	5.38219
5.14	5.37726
5.15	5.37364
5.16	5.37792
5.17	5.37134
5.18	5.36673
5.19	5.35917
5.2	5.36904
5.21	5.38121
5.22	5.35423
5.23	5.34765
5.24	5.34732
5.25	5.36048
5.26	5.34765
5.27	5.3391
5.28	5.33318
5.29	5.34996
5.3	5.33943
5.31	5.31607
5.32	5.33384
5.33	5.31311
5.34	5.30917
5.35	5.32825
5.36	5.3118
5.37	5.31147
5.38	5.31344
5.39	5.29469
5.4	5.28976
5.41	5.28614
5.42	5.28614
5.43	5.28022
5.44	5.29732
5.45	5.28778
5.46	5.27331
5.47	5.27726
5.48	5.26903
5.49	5.28351
5.5	5.27857
5.51	5.25752
5.52	5.24864
5.53	5.24732
5.54	5.27265
5.55	5.2539
5.56	5.26048
5.57	5.25291
5.58	5.24107
5.59	5.23778
5.6	5.23252
5.61	5.2516
5.62	5.2391
5.63	5.22923
5.64	5.24634
5.65	5.22923
5.66	5.22364
5.67	5.22528
5.68	5.21706
5.69	5.22462
5.7	5.20752
5.71	5.21147
5.72	5.21311
5.73	5.2062
5.74	5.19403
5.75	5.18614
5.76	5.19897
5.77	5.19732
5.78	5.196
5.79	5.20587
5.8	5.18153
5.81	5.1664
5.82	5.17857
5.83	5.17396
5.84	5.18416
5.85	5.16245
5.86	5.16245
5.87	5.16969
5.88	5.15127
5.89	5.15061
5.9	5.15324
5.91	5.16903
5.92	5.16969
5.93	5.15324
5.94	5.15192
5.95	5.15587
5.96	5.13646
5.97	5.13416
5.98	5.12758
5.99	5.13219
6	5.121
6.01	5.11771
6.02	5.1164
6.03	5.12923
6.04	5.11508
6.05	5.11344
6.06	5.1085
6.07	5.11804
6.08	5.11377
6.09	5.10357
6.1	5.10719
6.11	5.10784
6.12	5.09896
6.13	5.08284
6.14	5.08317
6.15	5.0789
6.16	5.08844
6.17	5.07232
6.18	5.08153
6.19	5.07594
6.2	5.0733
6.21	5.06311
6.22	5.07067
6.23	5.05192
6.24	5.06311
6.25	5.06212
6.26	5.05061
6.27	5.06245
6.28	5.05718
6.29	5.0483
6.3	5.03679
6.31	5.04863
6.32	5.03646
6.33	5.06409
6.34	5.03909
6.35	5.04008
6.36	5.03745
6.37	5.0358
6.38	5.04436
6.39	5.03449
6.4	5.02396
6.41	5.03054
6.42	5.02725
6.43	5.01935
6.44	5.02067
6.45	5.01245
6.46	5.01672
6.47	5.00751
6.48	5.01541
6.49	5.02166
6.5	5.0108
6.51	5.00521
6.52	4.99699
6.53	4.99896
6.54	5.00554
6.55	4.98613
6.56	4.98843
6.57	4.97429
6.58	4.98712
6.59	4.97626
6.6	4.97889
6.61	4.97429
6.62	4.98284
6.63	4.97692
6.64	4.98481
6.65	4.97955
6.66	4.96606
6.67	4.96639
6.68	4.96179
6.69	4.96508
6.7	4.96672
6.71	4.95685
6.72	4.95521
6.73	4.9585
6.74	4.96277
6.75	4.946
6.76	4.94271
6.77	4.94337
6.78	4.94501
6.79	4.93777
6.8	4.93744
6.81	4.94106
6.82	4.93021
6.83	4.92461
6.84	4.93383
6.85	4.91804
6.86	4.9154
6.87	4.92626
6.88	4.92297
6.89	4.91376
6.9	4.92231
6.91	4.90981
6.92	4.8983
6.93	4.89929
6.94	4.89731
6.95	4.91376
6.96	4.9085
6.97	4.896
6.98	4.88678
6.99	4.88843
7	4.89632
7.01	4.90257
7.02	4.88876
7.03	4.89435
7.04	4.87955
7.05	4.89369
7.06	4.87198
7.07	4.87922
7.08	4.88678
7.09	4.87034
7.1	4.86145
7.11	4.88086
7.12	4.87428
7.13	4.88251
7.14	4.8608
7.15	4.86902
7.16	4.86869
7.17	4.8733
7.18	4.84994
7.19	4.85422
7.2	4.8552
7.21	4.84895
7.22	4.84863
7.23	4.83251
7.24	4.83843
7.25	4.8427
7.26	4.84698
7.27	4.84468
7.28	4.83941
7.29	4.85586
7.3	4.84501
7.31	4.8427
7.32	4.84402
7.33	4.83909
7.34	4.83251
7.35	4.8279
7.36	4.83053
7.37	4.82593
7.38	4.81836
7.39	4.8131
7.4	4.82066
7.41	4.82428
7.42	4.81047
7.43	4.81474
7.44	4.82461
7.45	4.81376
7.46	4.81343
7.47	4.80849
7.48	4.80816
7.49	4.8006
7.5	4.77856
7.51	4.79698
7.52	4.80257
7.53	4.79764
7.54	4.80093
7.55	4.7881
7.56	4.79336
7.57	4.78645
7.58	4.78152
7.59	4.78086
7.6	4.79533
7.61	4.78843
7.62	4.77329
7.63	4.77066
7.64	4.77724
7.65	4.7802
7.66	4.76343
7.67	4.76869
7.68	4.76704
7.69	4.75027
7.7	4.75948
7.71	4.75981
7.72	4.74402
7.73	4.74764
7.74	4.74994
7.75	4.74764
7.76	4.73875
7.77	4.7404
7.78	4.74994
7.79	4.73514
7.8	4.74237
7.81	4.73579
7.82	4.74468
7.83	4.74665
7.84	4.74237
7.85	4.73185
7.86	4.74336
7.87	4.73514
7.88	4.74171
7.89	4.73908
7.9	4.7325
7.91	4.72
7.92	4.70816
7.93	4.7177
7.94	4.70684
7.95	4.72231
7.96	4.72428
7.97	4.71573
7.98	4.71277
7.99	4.71507
8	4.70816
8.01	4.70487
8.02	4.71342
8.03	4.70816
8.04	4.71573
8.05	4.70027
8.06	4.70388
8.07	4.70224
8.08	4.69467
8.09	4.70059
8.1	4.69994
8.11	4.69467
8.12	4.67724
8.13	4.68579
8.14	4.69467
8.15	4.68875
8.16	4.68908
8.17	4.68184
8.18	4.69138
8.19	4.67855
8.2	4.66836
8.21	4.67
8.22	4.67428
8.23	4.66507
8.24	4.67033
8.25	4.68119
8.26	4.69369
8.27	4.68908
8.28	4.68678
8.29	4.66737
8.3	4.66178
8.31	4.65882
8.32	4.65651
8.33	4.66112
8.34	4.67033
8.35	4.65257
8.36	4.66079
8.37	4.64566
8.38	4.66079
8.39	4.64336
8.4	4.64303
8.41	4.6529
8.42	4.65816
8.43	4.65816
8.44	4.65257
8.45	4.65553
8.46	4.65553
8.47	4.6348
8.48	4.64237
8.49	4.65882
8.5	4.63415
8.51	4.62987
8.52	4.62592
8.53	4.64237
8.54	4.64204
8.55	4.64928
8.56	4.63809
8.57	4.62197
8.58	4.61342
8.59	4.61868
8.6	4.62888
8.61	4.63151
8.62	4.64599
8.63	4.61803
8.64	4.60388
8.65	4.62329
8.66	4.6223
8.67	4.62822
8.68	4.61934
8.69	4.62625
8.7	4.62855
8.71	4.6075
8.72	4.60257
8.73	4.60618
8.74	4.6075
8.75	4.59303
8.76	4.60684
8.77	4.61342
8.78	4.60289
8.79	4.59566
8.8	4.59401
8.81	4.5996
8.82	4.59763
8.83	4.59467
8.84	4.58645
8.85	4.59401
8.86	4.59401
8.87	4.59105
8.88	4.5927
8.89	4.59303
8.9	4.5746
8.91	4.58513
8.92	4.595
8.93	4.57921
8.94	4.58546
8.95	4.57066
8.96	4.56967
8.97	4.58809
8.98	4.57691
8.99	4.57066
9	4.57724
9.01	4.57296
9.02	4.57362
9.03	4.57428
9.04	4.56934
9.05	4.5723
9.06	4.58085
9.07	4.56441
9.08	4.58381
9.09	4.57954
9.1	4.54697
9.11	4.56079
9.12	4.56901
9.13	4.55421
9.14	4.55256
9.15	4.55552
9.16	4.55881
9.17	4.55618
9.18	4.55881
9.19	4.5598
9.2	4.55487
9.21	4.5552
9.22	4.55849
9.23	4.55651
9.24	4.55256
9.25	4.56605
9.26	4.56671
9.27	4.55947
9.28	4.54664
9.29	4.5473
9.3	4.53743
9.31	4.53973
9.32	4.54697
9.33	4.53743
9.34	4.54105
9.35	4.54862
9.36	4.53875
9.37	4.53217
9.38	4.54072
9.39	4.54664
9.4	4.53908
9.41	4.53414
9.42	4.53381
9.43	4.53776
9.44	4.5348
9.45	4.52921
9.46	4.5223
9.47	4.52756
9.48	4.5325
9.49	4.5246
9.5	4.52855
9.51	4.52559
9.52	4.52362
9.53	4.53513
9.54	4.52658
9.55	4.52493
9.56	4.52855
9.57	4.53019
9.58	4.52098
9.59	4.51079
9.6	4.51737
9.61	4.50618
9.62	4.50552
9.63	4.51473
9.64	4.51013
9.65	4.5144
9.66	4.5098
9.67	4.5075
9.68	4.51046
9.69	4.50914
9.7	4.51046
9.71	4.49993
9.72	4.51013
9.73	4.5098
9.74	4.50026
9.75	4.49171
9.76	4.49401
9.77	4.49138
9.78	4.50158
9.79	4.49171
9.8	4.48743
9.81	4.49434
9.82	4.47657
9.83	4.48118
9.84	4.48677
9.85	4.47888
9.86	4.47986
9.87	4.47986
9.88	4.50125
9.89	4.4871
9.9	4.48052
9.91	4.4848
9.92	4.4825
9.93	4.48151
9.94	4.48579
9.95	4.48315
9.96	4.47921
9.97	4.47625
9.98	4.46703
9.99	4.45421
10	4.46802
10.01	4.46671
10.02	4.4848
10.03	4.46868
10.04	4.47625
10.05	4.46243
10.06	4.46967
10.07	4.47164
10.08	4.47329
10.09	4.47
10.1	4.47131
10.11	4.46243
10.12	4.46638
10.13	4.47657
10.14	4.47065
10.15	4.46605
10.16	4.47131
10.17	4.47329
10.18	4.47164
10.19	4.45651
10.2	4.46835
10.21	4.45289
10.22	4.46342
10.23	4.47361
10.24	4.46506
10.25	4.46572
10.26	4.47394
10.27	4.46769
10.28	4.4598
10.29	4.46177
10.3	4.4621
10.31	4.46243
10.32	4.45289
10.33	4.45059
10.34	4.44236
10.35	4.44861
10.36	4.46407
10.37	4.44993
10.38	4.4473
10.39	4.44565
10.4	4.44171
10.41	4.43217
10.42	4.45421
10.43	4.43611
10.44	4.43249
10.45	4.42953
10.46	4.43776
10.47	4.42986
10.48	4.4371
10.49	4.43414
10.5	4.42624
10.51	4.43907
10.52	4.44532
10.53	4.43578
10.54	4.43447
10.55	4.43315
10.56	4.43151
10.57	4.4371
10.58	4.43118
10.59	4.42789
10.6	4.42098
10.61	4.42361
10.62	4.42624
10.63	4.42427
10.64	4.41769
10.65	4.42098
10.66	4.41901
10.67	4.42624
10.68	4.42559
10.69	4.41901
10.7	4.41901
10.71	4.41901
10.72	4.42295
10.73	4.43315
10.74	4.41835
10.75	4.42032
10.76	4.42131
10.77	4.41341
10.78	4.41868
10.79	4.41473
10.8	4.41999
10.81	4.40026
10.82	4.41605
10.83	4.41868
10.84	4.43315
10.85	4.43447
10.86	4.41243
10.87	4.40881
10.88	4.40026
10.89	4.40749
10.9	4.4121
10.91	4.4098
10.92	4.40091
10.93	4.39927
10.94	4.40124
10.95	4.40453
10.96	4.40651
10.97	4.39993
10.98	4.39269
10.99	4.40486
11	4.40519
11.01	4.41045
11.02	4.41638
11.03	4.39894
11.04	4.39762
11.05	4.38512
11.06	4.39927
11.07	4.39466
11.08	4.40157
11.09	4.40256
11.1	4.39532
11.11	4.40026
11.12	4.40256
11.13	4.39466
11.14	4.39401
11.15	4.39236
11.16	4.40091
11.17	4.38677
11.18	4.39269
11.19	4.39664
11.2	4.38348
11.21	4.38249
11.22	4.39434
11.23	4.39434
11.24	4.38545
11.25	4.38874
11.26	4.39236
11.27	4.38282
11.28	4.38414
11.29	4.37887
11.3	4.38183
11.31	4.36901
11.32	4.37295
11.33	4.38118
11.34	4.37723
11.35	4.39006
11.36	4.38151
11.37	4.36012
11.38	4.36604
11.39	4.38019
11.4	4.38315
11.41	4.38118
11.42	4.37098
11.43	4.3667
11.44	4.37394
11.45	4.38183
11.46	4.39006
11.47	4.36637
11.48	4.36802
11.49	4.37164
11.5	4.36769
11.51	4.37558
11.52	4.38447
11.53	4.38216
11.54	4.36999
11.55	4.37789
11.56	4.37855
11.57	4.37558
11.58	4.3746
11.59	4.36604
11.6	4.3644
11.61	4.3621
11.62	4.37953
11.63	4.3871
11.64	4.36901
11.65	4.36868
11.66	4.36769
11.67	4.36868
11.68	4.36703
11.69	4.36703
11.7	4.35782
11.71	4.36111
11.72	4.35157
11.73	4.37032
11.74	4.36736
11.75	4.35453
11.76	4.36308
11.77	4.34762
11.78	4.34335
11.79	4.3723
11.8	4.34499
11.81	4.35618
11.82	4.36572
11.83	4.36243
11.84	4.3542
11.85	4.35256
11.86	4.35223
11.87	4.344
11.88	4.35486
11.89	4.3519
11.9	4.35651
11.91	4.35979
11.92	4.35749
11.93	4.34433
11.94	4.33743
11.95	4.35453
11.96	4.35848
11.97	4.36012
11.98	4.35025
11.99	4.34697
12	4.35289
12.01	4.35552
12.02	4.36736
12.03	4.35157
12.04	4.35025
12.05	4.35387
12.06	4.34302
12.07	4.34861
12.08	4.34762
12.09	4.3519
12.1	4.34368
12.11	4.34993
12.12	4.34302
12.13	4.34269
12.14	4.34697
12.15	4.33052
12.16	4.34039
12.17	4.35124
12.18	4.34664
12.19	4.33578
12.2	4.34828
12.21	4.34795
12.22	4.34433
12.23	4.34631
12.24	4.34368
12.25	4.33644
12.26	4.33578
12.27	4.33874
12.28	4.34532
12.29	4.33578
12.3	4.33216
12.31	4.34072
12.32	4.34072
12.33	4.33874
12.34	4.3394
12.35	4.34729
12.36	4.33874
12.37	4.33677
12.38	4.33282
12.39	4.3315
12.4	4.32131
12.41	4.32427
12.42	4.32394
12.43	4.33414
12.44	4.31999
12.45	4.33052
12.46	4.31933
12.47	4.33019
12.48	4.32756
12.49	4.31835
12.5	4.33414
12.51	4.33381
12.52	4.33446
12.53	4.33874
12.54	4.32493
12.55	4.31999
12.56	4.32295
12.57	4.30683
12.58	4.3065
12.59	4.32065
12.6	4.3065
12.61	4.319
12.62	4.32953
12.63	4.32164
12.64	4.31078
12.65	4.31933
12.66	4.33052
12.67	4.32493
12.68	4.31111
12.69	4.31045
12.7	4.31539
12.71	4.31242
12.72	4.32098
12.73	4.31736
12.74	4.30157
12.75	4.30782
12.76	4.3121
12.77	4.31242
12.78	4.31933
12.79	4.30519
12.8	4.30157
12.81	4.30815
12.82	4.30453
12.83	4.29795
12.84	4.30749
12.85	4.30552
12.86	4.31275
12.87	4.31539
12.88	4.30124
12.89	4.29894
12.9	4.30025
12.91	4.30519
12.92	4.30091
12.93	4.31045
12.94	4.30519
12.95	4.3121
12.96	4.31341
12.97	4.29302
12.98	4.30453
12.99	4.30519
13	4.3019
13.01	4.29335
13.02	4.31111
13.03	4.30256
13.04	4.3042
13.05	4.30387
13.06	4.29992
13.07	4.30683
13.08	4.29762
13.09	4.29466
13.1	4.27821
13.11	4.29071
13.12	4.2996
13.13	4.29565
13.14	4.29269
13.15	4.29006
13.16	4.28578
13.17	4.29828
13.18	4.30124
13.19	4.30256
13.2	4.31111
13.21	4.29861
13.22	4.29565
13.23	4.29631
13.24	4.28479
13.25	4.28874
13.26	4.29104
13.27	4.29861
13.28	4.30552
13.29	4.28052
13.3	4.29631
13.31	4.30025
13.32	4.29236
13.33	4.29367
13.34	4.29466
13.35	4.29433
13.36	4.28907
13.37	4.28907
13.38	4.2917
13.39	4.28479
13.4	4.29236
13.41	4.28775
13.42	4.27986
13.43	4.29236
13.44	4.28973
13.45	4.28249
13.46	4.28841
13.47	4.3019
13.48	4.2792
13.49	4.28117
13.5	4.29894
13.51	4.2894
13.52	4.294
13.53	4.30157
13.54	4.29663
13.55	4.28381
13.56	4.28677
13.57	4.28644
13.58	4.28249
13.59	4.28084
13.6	4.28084
13.61	4.27492
13.62	4.28413
13.63	4.27262
13.64	4.27427
13.65	4.269
13.66	4.28479
13.67	4.2769
13.68	4.27624
13.69	4.29137
13.7	4.26736
13.71	4.26966
13.72	4.27163
13.73	4.26933
13.74	4.27262
13.75	4.26473
13.76	4.26802
13.77	4.28512
13.78	4.28117
13.79	4.26933
13.8	4.26308
13.81	4.27756
13.82	4.26769
13.83	4.27163
13.84	4.29367
13.85	4.27229
13.86	4.27723
13.87	4.27953
13.88	4.27032
13.89	4.27427
13.9	4.2667
13.91	4.27427
13.92	4.27427
13.93	4.27262
13.94	4.27427
13.95	4.27887
13.96	4.28019
13.97	4.27953
13.98	4.27098
13.99	4.27525
14	4.28084
14.01	4.29499
14.02	4.28709
14.03	4.27459
14.04	4.26571
14.05	4.27229
14.06	4.2667
14.07	4.27295
14.08	4.26275
14.09	4.2644
14.1	4.26933
14.11	4.26769
14.12	4.28052
14.13	4.27098
14.14	4.28183
14.15	4.26571
14.16	4.26473
14.17	4.2769
14.18	4.25683
14.19	4.25683
14.2	4.25716
14.21	4.26177
14.22	4.2565
14.23	4.27558
14.24	4.26834
14.25	4.25749
14.26	4.27591
14.27	4.27065
14.28	4.26078
14.29	4.25946
14.3	4.25749
14.31	4.25913
14.32	4.2667
14.33	4.26341
14.34	4.27196
14.35	4.27459
14.36	4.26374
14.37	4.26407
14.38	4.26802
14.39	4.26966
14.4	4.25749
14.41	4.25979
14.42	4.25387
14.43	4.26374
14.44	4.27163
14.45	4.25387
14.46	4.24992
14.47	4.26473
14.48	4.24861
14.49	4.26078
14.5	4.25848
14.51	4.25321
14.52	4.25749
14.53	4.26802
14.54	4.26834
14.55	4.25683
14.56	4.25091
14.57	4.25584
14.58	4.25815
14.59	4.26275
14.6	4.26637
14.61	4.25913
14.62	4.26111
14.63	4.24598
14.64	4.25255
14.65	4.2565
14.66	4.25584
14.67	4.25848
14.68	4.25946
14.69	4.24926
14.7	4.25946
14.71	4.25749
14.72	4.2519
14.73	4.24894
14.74	4.26209
14.75	4.26505
14.76	4.25321
14.77	4.25519
14.78	4.2542
14.79	4.26505
14.8	4.26769
14.81	4.24565
14.82	4.25321
14.83	4.25815
14.84	4.24038
14.85	4.25354
14.86	4.24663
14.87	4.25782
14.88	4.25519
14.89	4.24926
14.9	4.25255
14.91	4.25453
14.92	4.26473
14.93	4.25354
14.94	4.23775
14.95	4.24466
14.96	4.23479
14.97	4.24762
14.98	4.25552
14.99	4.25124
15	4.24729
15.01	4.24828
15.02	4.244
15.03	4.24828
15.04	4.24959
15.05	4.24894
15.06	4.25683
15.07	4.24992
15.08	4.25124
15.09	4.24499
15.1	4.23742
15.11	4.25848
15.12	4.24762
15.13	4.25519
15.14	4.24532
15.15	4.24795
15.16	4.24598
15.17	4.24104
15.18	4.24894
15.19	4.244
15.2	4.24762
15.21	4.2394
15.22	4.23611
15.23	4.23644
15.24	4.24565
15.25	4.24005
15.26	4.25157
15.27	4.25486
15.28	4.24598
15.29	4.24301
15.3	4.24433
15.31	4.24992
15.32	4.23611
15.33	4.24433
15.34	4.24071
15.35	4.24301
15.36	4.24005
15.37	4.22953
15.38	4.23019
15.39	4.22262
15.4	4.24926
15.41	4.24926
15.42	4.25486
15.43	4.24828
15.44	4.2417
15.45	4.23742
15.46	4.24203
15.47	4.244
15.48	4.22657
15.49	4.23545
15.5	4.25255
15.51	4.2338
15.52	4.23545
15.53	4.23545
15.54	4.23019
15.55	4.24203
15.56	4.24828
15.57	4.23578
15.58	4.24236
15.59	4.23644
15.6	4.24301
15.61	4.23019
15.62	4.2292
15.63	4.24301
15.64	4.22953
15.65	4.23051
15.66	4.23874
15.67	4.22887
15.68	4.24433
15.69	4.23676
15.7	4.23183
15.71	4.24104
15.72	4.24762
15.73	4.23249
15.74	4.22262
15.75	4.23183
15.76	4.23808
15.77	4.23479
15.78	4.23019
15.79	4.23874
15.8	4.24301
15.81	4.23117
15.82	4.22328
15.83	4.23216
15.84	4.2417
15.85	4.23117
15.86	4.22459
15.87	4.22986
15.88	4.22657
15.89	4.23019
15.9	4.22591
15.91	4.2394
15.92	4.23216
15.93	4.22755
15.94	4.22854
15.95	4.23611
15.96	4.22525
15.97	4.22657
15.98	4.23019
15.99	4.23644
16	4.2167
16.01	4.2213
16.02	4.22459
16.03	4.22788
16.04	4.23084
16.05	4.22722
16.06	4.23183
16.07	4.23578
16.08	4.22657
16.09	4.2315
16.1	4.23874
16.11	4.23512
16.12	4.23315
16.13	4.23051
16.14	4.23479
16.15	4.22624
16.16	4.22722
16.17	4.23183
16.18	4.22755
16.19	4.23709
16.2	4.24367
16.21	4.23479
16.22	4.22887
16.23	4.22986
16.24	4.22887
16.25	4.23644
16.26	4.21768
16.27	4.22887
16.28	4.22854
16.29	4.22821
16.3	4.23183
16.31	4.22295
16.32	4.22492
16.33	4.22854
16.34	4.22558
16.35	4.22163
16.36	4.2292
16.37	4.2315
16.38	4.21407
16.39	4.21966
16.4	4.20584
16.41	4.22854
16.42	4.21012
16.43	4.22591
16.44	4.22722
16.45	4.21505
16.46	4.21308
16.47	4.21768
16.48	4.21966
16.49	4.219
16.5	4.2269
16.51	4.22295
16.52	4.21703
16.53	4.2269
16.54	4.21505
16.55	4.21407
16.56	4.22328
16.57	4.21999
16.58	4.20815
16.59	4.20946
16.6	4.21538
16.61	4.22065
16.62	4.21472
16.63	4.20749
16.64	4.20058
16.65	4.21275
16.66	4.2292
16.67	4.2269
16.68	4.21834
16.69	4.21867
16.7	4.22426
16.71	4.2167
16.72	4.2065
16.73	4.21538
16.74	4.20847
16.75	4.22262
16.76	4.20617
16.77	4.21209
16.78	4.20749
16.79	4.22065
16.8	4.22755
16.81	4.21736
16.82	4.21374
16.83	4.2213
16.84	4.22887
16.85	4.20749
16.86	4.21045
16.87	4.22262
16.88	4.22065
16.89	4.22624
16.9	4.22722
16.91	4.22624
16.92	4.2167
16.93	4.21538
16.94	4.21374
16.95	4.20683
16.96	4.22492
16.97	4.21867
16.98	4.20979
16.99	4.22262
17	4.2088
17.01	4.21736
17.02	4.22097
17.03	4.20617
17.04	4.21111
17.05	4.21538
17.06	4.20979
17.07	4.21242
17.08	4.20847
17.09	4.20255
17.1	4.19861
17.11	4.21341
17.12	4.21571
17.13	4.20354
17.14	4.21045
17.15	4.2042
17.16	4.21275
17.17	4.20157
17.18	4.20847
17.19	4.21111
17.2	4.21308
17.21	4.21012
17.22	4.20124
17.23	4.20453
17.24	4.20584
17.25	4.21078
17.26	4.19992
17.27	4.19795
17.28	4.2065
17.29	4.21407
17.3	4.21308
17.31	4.21341
17.32	4.2065
17.33	4.20584
17.34	4.19861
17.35	4.20025
17.36	4.19762
17.37	4.20354
17.38	4.21308
17.39	4.20288
17.4	4.20749
17.41	4.20946
17.42	4.21078
17.43	4.21012
17.44	4.21341
17.45	4.19203
17.46	4.18643
17.47	4.19466
17.48	4.20058
17.49	4.2065
17.5	4.2042
17.51	4.19992
17.52	4.20321
17.53	4.21176
17.54	4.20518
17.55	4.20091
17.56	4.19532
17.57	4.20716
17.58	4.19828
17.59	4.21045
17.6	4.21242
17.61	4.19893
17.62	4.19828
17.63	4.20551
17.64	4.21966
17.65	4.2042
17.66	4.21472
17.67	4.21012
17.68	4.20157
17.69	4.20255
17.7	4.20913
17.71	4.20025
17.72	4.20091
17.73	4.2042
17.74	4.20321
17.75	4.20683
17.76	4.2065
17.77	4.21111
17.78	4.20782
17.79	4.20584
17.8	4.21176
17.81	4.21275
17.82	4.2065
17.83	4.20782
17.84	4.20584
17.85	4.20453
17.86	4.19564
17.87	4.194
17.88	4.19861
17.89	4.20815
17.9	4.18907
17.91	4.20946
17.92	4.20486
17.93	4.20815
17.94	4.20782
17.95	4.19268
17.96	4.19959
17.97	4.19301
17.98	4.19499
17.99	4.20321
18	4.19828
18.01	4.18742
18.02	4.18874
18.03	4.21538
18.04	4.21078
18.05	4.20321
18.06	4.19334
18.07	4.19301
18.08	4.20946
18.09	4.19828
18.1	4.1838
18.11	4.19729
18.12	4.20189
18.13	4.19367
18.14	4.18512
18.15	4.20058
18.16	4.20749
18.17	4.19433
18.18	4.19268
18.19	4.20354
18.2	4.19828
18.21	4.19532
18.22	4.20387
18.23	4.20255
18.24	4.20025
18.25	4.18742
18.26	4.18939
18.27	4.18972
18.28	4.19926
18.29	4.20157
18.3	4.18808
18.31	4.1963
18.32	4.20288
18.33	4.19663
18.34	4.20157
18.35	4.19893
18.36	4.19861
18.37	4.19071
18.38	4.18051
18.39	4.1838
18.4	4.20091
18.41	4.1963
18.42	4.19663
18.43	4.20815
18.44	4.20453
18.45	4.19071
18.46	4.20091
18.47	4.19926
18.48	4.19564
18.49	4.20518
18.5	4.19861
18.51	4.19499
18.52	4.19893
18.53	4.21143
18.54	4.19268
18.55	4.18545
18.56	4.1861
18.57	4.19334
18.58	4.19301
18.59	4.19795
18.6	4.19005
18.61	4.18874
18.62	4.19696
18.63	4.20189
18.64	4.19005
18.65	4.19795
18.66	4.18183
18.67	4.19137
18.68	4.18742
18.69	4.19203
18.7	4.19564
18.71	4.194
18.72	4.19367
18.73	4.20124
18.74	4.18545
18.75	4.19499
18.76	4.19104
18.77	4.20387
18.78	4.19203
18.79	4.18939
18.8	4.18676
18.81	4.18808
18.82	4.18545
18.83	4.19696
18.84	4.19236
18.85	4.19433
18.86	4.18051
18.87	4.18676
18.88	4.18709
18.89	4.18512
18.9	4.1861
18.91	4.17492
18.92	4.18446
18.93	4.19071
18.94	4.18512
18.95	4.18183
18.96	4.19564
18.97	4.19071
18.98	4.18282
18.99	4.18051
19	4.17887
19.01	4.19532
19.02	4.1917
19.03	4.18907
19.04	4.19367
19.05	4.1917
19.06	4.19433
19.07	4.17328
19.08	4.18051
19.09	4.17985
19.1	4.1861
19.11	4.1736
19.12	4.17788
19.13	4.19992
19.14	4.19926
19.15	4.19268
19.16	4.18183
19.17	4.19926
19.18	4.19203
19.19	4.18051
19.2	4.19663
19.21	4.18347
19.22	4.17788
19.23	4.18051
19.24	4.19071
19.25	4.19203
19.26	4.18939
19.27	4.19959
19.28	4.18808
19.29	4.18018
19.3	4.19334
19.31	4.18512
19.32	4.17821
19.33	4.19038
19.34	4.19795
19.35	4.18874
19.36	4.18314
19.37	4.18808
19.38	4.17624
19.39	4.19762
19.4	4.18907
19.41	4.19005
19.42	4.18084
19.43	4.19663
19.44	4.18282
19.45	4.17558
19.46	4.17657
19.47	4.15781
19.48	4.16604
19.49	4.17624
19.5	4.17953
19.51	4.18347
19.52	4.18282
19.53	4.16374
19.54	4.17492
19.55	4.17887
19.56	4.1736
19.57	4.1736
19.58	4.17328
19.59	4.16604
19.6	4.17393
19.61	4.17657
19.62	4.19071
19.63	4.18446
19.64	4.18051
19.65	4.18051
19.66	4.18479
19.67	4.17064
19.68	4.17624
19.69	4.17887
19.7	4.16735
19.71	4.18479
19.72	4.16999
19.73	4.1815
19.74	4.18676
19.75	4.18479
19.76	4.17328
19.77	4.18347
19.78	4.18084
19.79	4.18084
19.8	4.18117
19.81	4.17657
19.82	4.17854
19.83	4.18578
19.84	4.17492
19.85	4.17196
19.86	4.17328
19.87	4.17393
19.88	4.1917
19.89	4.19532
19.9	4.18051
19.91	4.19071
19.92	4.19137
19.93	4.19532
19.94	4.16966
19.95	4.16834
19.96	4.17328
19.97	4.17689
19.98	4.17163
19.99	4.16341
20	4.1792
20.01	4.19532
20.02	4.17426
20.03	4.17821
20.04	4.18841
20.05	4.18084
20.06	4.18018
20.07	4.16735
20.08	4.16406
20.09	4.17591
20.1	4.17887
20.11	4.16637
20.12	4.17459
20.13	4.17887
20.14	4.17624
20.15	4.16472
20.16	4.17393
20.17	4.17657
20.18	4.17196
20.19	4.16538
20.2	4.169
20.21	4.16637
20.22	4.18545
20.23	4.18249
20.24	4.1736
20.25	4.17821
20.26	4.1667
20.27	4.16604
20.28	4.16801
20.29	4.16571
20.3	4.16406
20.31	4.18216
20.32	4.1815
20.33	4.17328
20.34	4.17689
20.35	4.17459
20.36	4.16374
20.37	4.17031
20.38	4.16308
20.39	4.16637
20.4	4.17525
20.41	4.17196
20.42	4.17229
20.43	4.16867
20.44	4.18347
20.45	4.1713
20.46	4.17229
20.47	4.17459
20.48	4.16999
20.49	4.17591
20.5	4.17887
20.51	4.18347
20.52	4.17492
20.53	4.16604
20.54	4.18018
20.55	4.18545
20.56	4.16341
20.57	4.16176
20.58	4.16933
20.59	4.16999
20.6	4.17163
20.61	4.16801
20.62	4.16341
20.63	4.18084
20.64	4.17262
20.65	4.16505
20.66	4.18018
20.67	4.17854
20.68	4.17328
20.69	4.16505
20.7	4.17689
20.71	4.17755
20.72	4.18907
20.73	4.1792
20.74	4.17657
20.75	4.18084
20.76	4.18051
20.77	4.18347
20.78	4.17755
20.79	4.18479
20.8	4.17295
20.81	4.17525
20.82	4.1838
20.83	4.18972
20.84	4.17985
20.85	4.18446
20.86	4.17953
20.87	4.16834
20.88	4.17064
20.89	4.16735
20.9	4.17854
20.91	4.17064
20.92	4.16834
20.93	4.16242
20.94	4.1736
20.95	4.17163
20.96	4.18216
20.97	4.16933
20.98	4.17097
20.99	4.18117
21	4.17591
21.01	4.16999
21.02	4.169
21.03	4.17262
21.04	4.16143
21.05	4.17196
21.06	4.17492
21.07	4.169
21.08	4.1667
21.09	4.17525
21.1	4.17689
21.11	4.16933
21.12	4.17097
21.13	4.17558
21.14	4.18347
21.15	4.16176
21.16	4.17459
21.17	4.17229
21.18	4.16801
21.19	4.17689
21.2	4.17854
21.21	4.17657
21.22	4.18907
21.23	4.18216
21.24	4.17624
21.25	4.1667
21.26	4.16604
21.27	4.17591
21.28	4.1736
21.29	4.17295
21.3	4.17196
21.31	4.16768
21.32	4.17328
21.33	4.15749
21.34	4.16143
21.35	4.17393
21.36	4.16768
21.37	4.16439
21.38	4.15847
21.39	4.17657
21.4	4.1713
21.41	4.17624
21.42	4.16242
21.43	4.17854
21.44	4.18808
21.45	4.16439
21.46	4.16999
21.47	4.16966
21.48	4.16374
21.49	4.16703
21.5	4.16834
21.51	4.16801
21.52	4.16143
21.53	4.17262
21.54	4.17821
21.55	4.169
21.56	4.16637
21.57	4.15683
21.58	4.16604
21.59	4.16275
21.6	4.16571
21.61	4.16834
21.62	4.17196
21.63	4.16933
21.64	4.17262
21.65	4.17229
21.66	4.16999
21.67	4.17262
21.68	4.17689
21.69	4.1792
21.7	4.17328
21.71	4.1588
21.72	4.16703
21.73	4.18512
21.74	4.17624
21.75	4.17295
21.76	4.16801
21.77	4.16834
21.78	4.17657
21.79	4.17262
21.8	4.17328
21.81	4.16703
21.82	4.17229
21.83	4.17558
21.84	4.17393
21.85	4.17459
21.86	4.15979
21.87	4.1917
21.88	4.18413
21.89	4.16999
21.9	4.17328
21.91	4.18347
21.92	4.16966
21.93	4.16999
21.94	4.17788
21.95	4.17657
21.96	4.17953
21.97	4.16637
21.98	4.17459
21.99	4.17953
22	4.1713
22.01	4.17887
22.02	4.16703
22.03	4.18216
22.04	4.17328
22.05	4.17229
22.06	4.17459
22.07	4.18282
22.08	4.17624
22.09	4.16933
22.1	4.17525
22.11	4.16768
22.12	4.15617
22.13	4.15387
22.14	4.16538
22.15	4.17196
22.16	4.16045
22.17	4.17328
22.18	4.17295
22.19	4.17262
22.2	4.14992
22.21	4.17887
22.22	4.18347
22.23	4.17492
22.24	4.18249
22.25	4.16735
22.26	4.17821
22.27	4.17262
22.28	4.15946
22.29	4.16406
22.3	4.16867
22.31	4.15847
22.32	4.16703
22.33	4.15781
22.34	4.16374
22.35	4.16867
22.36	4.17196
22.37	4.16012
22.38	4.15781
22.39	4.17558
22.4	4.1713
22.41	4.17985
22.42	4.17064
22.43	4.1486
22.44	4.15222
22.45	4.15551
22.46	4.17262
22.47	4.16308
22.48	4.16078
22.49	4.16801
22.5	4.16406
22.51	4.16571
22.52	4.16176
22.53	4.17031
22.54	4.16735
22.55	4.16045
22.56	4.15847
22.57	4.16209
22.58	4.15781
22.59	4.15321
22.6	4.16768
22.61	4.15288
22.62	4.15913
22.63	4.15716
22.64	4.1542
22.65	4.15354
22.66	4.14696
22.67	4.15683
22.68	4.15814
22.69	4.17591
22.7	4.16637
22.71	4.15255
22.72	4.15979
22.73	4.16176
22.74	4.16966
22.75	4.1565
22.76	4.15124
22.77	4.1667
22.78	4.16505
22.79	4.16012
22.8	4.14499
22.81	4.15222
22.82	4.15814
22.83	4.16834
22.84	4.15781
22.85	4.16406
22.86	4.16374
22.87	4.16505
22.88	4.16341
22.89	4.16242
22.9	4.16275
22.91	4.15946
22.92	4.16143
22.93	4.15189
22.94	4.15058
22.95	4.16242
22.96	4.15124
22.97	4.16209
22.98	4.16735
22.99	4.15518
23	4.15781
23.01	4.1565
23.02	4.15091
23.03	4.13906
23.04	4.15749
23.05	4.16735
23.06	4.15058
23.07	4.14597
23.08	4.15387
23.09	4.16209
23.1	4.1667
23.11	4.17722
23.12	4.16439
23.13	4.15683
23.14	4.16768
23.15	4.16176
23.16	4.15716
23.17	4.16571
23.18	4.15683
23.19	4.16341
23.2	4.18117
23.21	4.16505
23.22	4.16571
23.23	4.16834
23.24	4.17295
23.25	4.15452
23.26	4.16045
23.27	4.16703
23.28	4.1463
23.29	4.15584
23.3	4.16374
23.31	4.16143
23.32	4.16538
23.33	4.16703
23.34	4.16209
23.35	4.16374
23.36	4.16045
23.37	4.16505
23.38	4.16538
23.39	4.16242
23.4	4.17163
23.41	4.15913
23.42	4.1667
23.43	4.17657
23.44	4.16308
23.45	4.16078
23.46	4.16834
23.47	4.16209
23.48	4.16078
23.49	4.1588
23.5	4.15518
23.51	4.16406
23.52	4.16045
23.53	4.1565
23.54	4.16637
23.55	4.17163
23.56	4.15979
23.57	4.15025
23.58	4.15847
23.59	4.14795
23.6	4.16209
23.61	4.15189
23.62	4.15749
23.63	4.16406
23.64	4.16176
23.65	4.15058
23.66	4.15551
23.67	4.15584
23.68	4.16341
23.69	4.14992
23.7	4.1565
23.71	4.15124
23.72	4.15452
23.73	4.1611
23.74	4.15913
23.75	4.16045
23.76	4.14137
23.77	4.15452
23.78	4.15091
23.79	4.16242
23.8	4.15025
23.81	4.16078
23.82	4.16275
23.83	4.15091
23.84	4.14466
23.85	4.14827
23.86	4.14433
23.87	4.15485
23.88	4.15617
23.89	4.14005
23.9	4.13906
23.91	4.15814
23.92	4.14663
23.93	4.15485
23.94	4.15354
23.95	4.14926
23.96	4.15814
23.97	4.15288
23.98	4.15387
23.99	4.15847
24	4.1486
24.01	4.15814
24.02	4.1611
24.03	4.15189
24.04	4.15683
24.05	4.16538
24.06	4.15584
24.07	4.15716
24.08	4.14827
24.09	4.15946
24.1	4.16505
24.11	4.15452
24.12	4.14696
24.13	4.15946
24.14	4.1486
24.15	4.1486
24.16	4.15946
24.17	4.14564
24.18	4.15683
24.19	4.16406
24.2	4.17031
24.21	4.15617
24.22	4.14926
24.23	4.14531
24.24	4.14663
24.25	4.14926
24.26	4.16242
24.27	4.15288
24.28	4.1565
24.29	4.16275
24.3	4.1667
24.31	4.15683
24.32	4.15551
24.33	4.16242
24.34	4.15551
24.35	4.1588
24.36	4.16078
24.37	4.15518
24.38	4.15222
24.39	4.1417
24.4	4.15124
24.41	4.15058
24.42	4.15091
24.43	4.14367
24.44	4.15156
24.45	4.14235
24.46	4.14597
24.47	4.15058
24.48	4.14762
24.49	4.13939
24.5	4.14334
24.51	4.14334
24.52	4.16242
24.53	4.1565
24.54	4.15913
24.55	4.15781
24.56	4.15814
24.57	4.15716
24.58	4.15058
24.59	4.16801
24.6	4.15222
24.61	4.15518
24.62	4.15485
24.63	4.15946
24.64	4.16045
24.65	4.15222
24.66	4.15518
24.67	4.16538
24.68	4.16604
24.69	4.15584
24.7	4.15781
24.71	4.16867
24.72	4.14827
24.73	4.15222
24.74	4.16768
24.75	4.15025
24.76	4.15617
24.77	4.15913
24.78	4.15814
24.79	4.15156
24.8	4.16406
24.81	4.15584
24.82	4.15321
24.83	4.15156
24.84	4.16078
24.85	4.16078
24.86	4.14466
24.87	4.14992
24.88	4.14466
24.89	4.14235
24.9	4.15683
24.91	4.14104
24.92	4.14597
24.93	4.1542
24.94	4.1588
24.95	4.14959
24.96	4.1565
24.97	4.16439
24.98	4.16143
24.99	4.16275
25	4.16637
25.01	4.1588
25.02	4.14696
25.03	4.15156
25.04	4.16275
25.05	4.15156
25.06	4.15058
25.07	4.144
25.08	4.15288
25.09	4.15124
25.1	4.14564
25.11	4.15485
25.12	4.14729
25.13	4.13413
25.14	4.14466
25.15	4.12985
25.16	4.13939
25.17	4.15222
25.18	4.15584
25.19	4.1417
25.2	4.14663
25.21	4.13545
25.22	4.14795
25.23	4.16078
25.24	4.16143
25.25	4.16176
25.26	4.16242
25.27	4.1565
25.28	4.15058
25.29	4.1463
25.3	4.14466
25.31	4.14564
25.32	4.14038
25.33	4.13479
25.34	4.13775
25.35	4.15058
25.36	4.13906
25.37	4.14202
25.38	4.13874
25.39	4.14893
25.4	4.1565
25.41	4.14564
25.42	4.14433
25.43	4.13775
25.44	4.1361
25.45	4.14104
25.46	4.13972
25.47	4.1361
25.48	4.14959
25.49	4.1463
25.5	4.14235
25.51	4.14235
25.52	4.15485
25.53	4.14499
25.54	4.13874
25.55	4.1338
25.56	4.13545
25.57	4.13676
25.58	4.15354
25.59	4.14531
25.6	4.14433
25.61	4.14466
25.62	4.14597
25.63	4.1338
25.64	4.14071
25.65	4.14137
25.66	4.14104
25.67	4.15452
25.68	4.16242
25.69	4.14795
25.7	4.14334
25.71	4.14597
25.72	4.15091
25.73	4.15222
25.74	4.14893
25.75	4.15091
25.76	4.12887
25.77	4.13347
25.78	4.13841
25.79	4.15025
25.8	4.14268
25.81	4.14926
25.82	4.15156
25.83	4.15847
25.84	4.14531
25.85	4.13347
25.86	4.1338
25.87	4.15551
25.88	4.14926
25.89	4.13972
25.9	4.14663
25.91	4.14959
25.92	4.14104
25.93	4.15288
25.94	4.15814
25.95	4.14597
25.96	4.15683
25.97	4.14926
25.98	4.13808
25.99	4.13775
26	4.1417
26.01	4.15354
26.02	4.13972
26.03	4.13281
26.04	4.13939
26.05	4.14959
26.06	4.1463
26.07	4.15814
26.08	4.14827
26.09	4.1542
26.1	4.14531
26.11	4.15387
26.12	4.13545
26.13	4.15321
26.14	4.13676
26.15	4.13972
26.16	4.14959
26.17	4.14334
26.18	4.12689
26.19	4.13577
26.2	4.13643
26.21	4.13084
26.22	4.14663
26.23	4.14729
26.24	4.14268
26.25	4.1417
26.26	4.144
26.27	4.14334
26.28	4.14795
26.29	4.13479
26.3	4.13413
26.31	4.13775
26.32	4.13117
26.33	4.13742
26.34	4.14301
26.35	4.14466
26.36	4.14137
26.37	4.1361
26.38	4.14433
26.39	4.14005
26.4	4.12821
26.41	4.13577
26.42	4.13479
26.43	4.13972
26.44	4.13347
26.45	4.12985
26.46	4.13808
26.47	4.13577
26.48	4.12952
26.49	4.13545
26.5	4.13841
26.51	4.13841
26.52	4.14104
26.53	4.12985
26.54	4.12722
26.55	4.12985
26.56	4.12656
26.57	4.13117
26.58	4.13216
26.59	4.14202
26.6	4.13643
26.61	4.11966
26.62	4.12722
26.63	4.12656
26.64	4.12887
26.65	4.13841
26.66	4.13709
26.67	4.1292
26.68	4.12196
26.69	4.11834
26.7	4.12097
26.71	4.12623
26.72	4.12854
26.73	4.14663
26.74	4.14564
26.75	4.1417
26.76	4.12887
26.77	4.13643
26.78	4.13841
26.79	4.14038
26.8	4.13808
26.81	4.15025
26.82	4.12656
26.83	4.12064
26.84	4.13906
26.85	4.14334
26.86	4.13545
26.87	4.14301
26.88	4.14268
26.89	4.14268
26.9	4.13643
26.91	4.14301
26.92	4.1417
26.93	4.1361
26.94	4.13248
26.95	4.14038
26.96	4.14663
26.97	4.14038
26.98	4.13972
26.99	4.13709
27	4.15222
27.01	4.14696
27.02	4.1486
27.03	4.14893
27.04	4.1463
27.05	4.14926
27.06	4.14235
27.07	4.13577
27.08	4.14268
27.09	4.13281
27.1	4.14729
27.11	4.14729
27.12	4.14104
27.13	4.13841
27.14	4.12327
27.15	4.14202
27.16	4.13775
27.17	4.14071
27.18	4.13906
27.19	4.13347
27.2	4.14433
27.21	4.13742
27.22	4.14334
27.23	4.13972
27.24	4.13874
27.25	4.12525
27.26	4.13972
27.27	4.13545
27.28	4.13248
27.29	4.13347
27.3	4.12262
27.31	4.1292
27.32	4.13248
27.33	4.13248
27.34	4.14137
27.35	4.14137
27.36	4.12492
27.37	4.12821
27.38	4.13742
27.39	4.12656
27.4	4.10847
27.41	4.12327
27.42	4.13117
27.43	4.1417
27.44	4.13117
27.45	4.12722
27.46	4.13808
27.47	4.13281
27.48	4.13281
27.49	4.12229
27.5	4.12854
27.51	4.12097
27.52	4.12295
27.53	4.12426
27.54	4.13314
27.55	4.12031
27.56	4.12591
27.57	4.119
27.58	4.12591
27.59	4.12262
27.6	4.1292
27.61	4.13084
27.62	4.1338
27.63	4.1236
27.64	4.12459
27.65	4.14367
27.66	4.1236
27.67	4.12591
27.68	4.13084
27.69	4.14729
27.7	4.1417
27.71	4.1315
27.72	4.13084
27.73	4.13906
27.74	4.14301
27.75	4.14893
27.76	4.1361
27.77	4.12689
27.78	4.12788
27.79	4.12952
27.8	4.13216
27.81	4.12656
27.82	4.1236
27.83	4.12689
27.84	4.14071
27.85	4.13051
27.86	4.12689
27.87	4.12163
27.88	4.12064
27.89	4.13874
27.9	4.13216
27.91	4.13972
27.92	4.13216
27.93	4.14367
27.94	4.12558
27.95	4.12229
27.96	4.12459
27.97	4.12426
27.98	4.14466
27.99	4.13939
28	4.12558
28.01	4.14005
28.02	4.14038
28.03	4.11538
28.04	4.11801
28.05	4.10946
28.06	4.12558
28.07	4.13939
28.08	4.14268
28.09	4.13281
28.1	4.119
28.11	4.12459
28.12	4.12031
28.13	4.11209
28.14	4.13643
28.15	4.13479
28.16	4.11966
28.17	4.13281
28.18	4.12722
28.19	4.10946
28.2	4.11702
28.21	4.12821
28.22	4.11143
28.23	4.1213
28.24	4.12854
28.25	4.12262
28.26	4.12196
28.27	4.13018
28.28	4.12591
28.29	4.12689
28.3	4.13051
28.31	4.12492
28.32	4.12492
28.33	4.12788
28.34	4.12591
28.35	4.12229
28.36	4.11998
28.37	4.11834
28.38	4.13216
28.39	4.12262
28.4	4.13248
28.41	4.12163
28.42	4.12031
28.43	4.13084
28.44	4.12656
28.45	4.12591
28.46	4.12262
28.47	4.13577
28.48	4.13906
28.49	4.12591
28.5	4.13018
28.51	4.12459
28.52	4.12327
28.53	4.11472
28.54	4.13281
28.55	4.13018
28.56	4.1213
28.57	4.10913
28.58	4.13051
28.59	4.13248
28.6	4.12985
28.61	4.12097
28.62	4.1315
28.63	4.1236
28.64	4.12722
28.65	4.12821
28.66	4.12229
28.67	4.119
28.68	4.12163
28.69	4.12262
28.7	4.12295
28.71	4.13808
28.72	4.13512
28.73	4.13248
28.74	4.1088
28.75	4.11933
28.76	4.11012
28.77	4.12262
28.78	4.13314
28.79	4.14104
28.8	4.1338
28.81	4.11505
28.82	4.1065
28.83	4.12755
28.84	4.13709
28.85	4.12163
28.86	4.13084
28.87	4.13413
28.88	4.12393
28.89	4.12591
28.9	4.12558
28.91	4.12558
28.92	4.13248
28.93	4.12327
28.94	4.12558
28.95	4.12229
28.96	4.12788
28.97	4.13479
28.98	4.13775
28.99	4.12952
29	4.11834
29.01	4.1292
29.02	4.13874
29.03	4.11867
29.04	4.11209
29.05	4.13281
29.06	4.14268
29.07	4.13512
29.08	4.14367
29.09	4.14729
29.1	4.13972
29.11	4.13117
29.12	4.13018
29.13	4.12426
29.14	4.1292
29.15	4.1315
29.16	4.14367
29.17	4.13347
29.18	4.11505
29.19	4.12097
29.2	4.1213
29.21	4.13643
29.22	4.1361
29.23	4.12327
29.24	4.12229
29.25	4.12426
29.26	4.12426
29.27	4.12426
29.28	4.11242
29.29	4.12097
29.3	4.12854
29.31	4.11735
29.32	4.12393
29.33	4.13281
29.34	4.12163
29.35	4.11505
29.36	4.1338
29.37	4.12031
29.38	4.11702
29.39	4.10781
29.4	4.11012
29.41	4.12492
29.42	4.119
29.43	4.1292
29.44	4.11867
29.45	4.12064
29.46	4.12623
29.47	4.12558
29.48	4.1213
29.49	4.1236
29.5	4.12295
29.51	4.12722
29.52	4.12788
29.53	4.11275
29.54	4.10518
29.55	4.11702
29.56	4.12656
29.57	4.119
29.58	4.11637
29.59	4.12196
29.6	4.12163
29.61	4.13117
29.62	4.12755
29.63	4.10814
29.64	4.11242
29.65	4.11538
29.66	4.12295
29.67	4.12623
29.68	4.13183
29.69	4.1361
29.7	4.13479
29.71	4.13018
29.72	4.12689
29.73	4.13545
29.74	4.11998
29.75	4.1292
29.76	4.1236
29.77	4.12656
29.78	4.12295
29.79	4.10913
29.8	4.12097
29.81	4.1236
29.82	4.12623
29.83	4.12393
29.84	4.12393
29.85	4.12295
29.86	4.11604
29.87	4.11834
29.88	4.11702
29.89	4.11637
29.9	4.12163
29.91	4.11702
29.92	4.11505
29.93	4.1338
29.94	4.1338
29.95	4.11834
29.96	4.12163
29.97	4.12295
29.98	4.12591
29.99	4.11669
30	4.11242
