"BIO-KINE ASCII FILE"
"_COMMENT"	"MOS-500 Spectrometer"
"_COMMENT"	"Kinetics measurement"
"_COMMENT"	"Y Unit : Volt,  X Unit : s"
"_COMMENT"	"Excitation wavelength : 380 nm"
"_COMMENT"	"Fentes bandwidth =  1 nm"
"_COMMENT"	"HV= 1000V"
"_COMMENT"	"Timebase  1 =  .01 s   5001 pts"
"_SFM"	"SFM-400 /S  Advanced mode"
"_SFM"	"Ratio : S1: 2.5, S2: 0, S3: 0, S4: 1"
"_SFM"	"Content : S1: , S2: , S3: , S4:"
"_SFM"	"Concentration : S1: , S2: , S3: , S4:"
"_SFM"	"Total volume : 209 µl  Flow : 3.5 mL/s"
"_SFM"	"Acquisition start :  10 ms before stop"
"_SFM"	"cuve=FC-15, s1=10 ml , s2=10 ml , s3=10 ml , s4=1.9 ml"
"_UNITX"	"s"
"_UNITY"	"Volt"
"_DELTAX"	0
"_DATA"
1e-300	8.24444
0.01	8.57504
0.02	8.49379
0.03	8.63886
0.04	8.69544
0.05	8.71419
0.06	8.76583
0.07	8.82472
0.08	8.82176
0.09	8.88097
0.1	8.81584
0.11	8.82867
0.12	8.8007
0.13	8.78491
0.14	8.81748
0.15	8.85531
0.16	8.81748
0.17	8.82702
0.18	8.78952
0.19	8.80761
0.2	8.86617
0.21	8.83492
0.22	8.83886
0.23	8.85399
0.24	8.78327
0.25	8.8109
0.26	8.87965
0.27	8.8257
0.28	8.82965
0.29	8.84939
0.3	8.78985
0.31	8.77932
0.32	8.80432
0.33	8.78426
0.34	8.77011
0.35	8.78853
0.36	8.78524
0.37	8.8086
0.38	8.77176
0.39	8.75761
0.4	8.77406
0.41	8.78623
0.42	8.86814
0.43	8.81814
0.44	8.75268
0.45	8.74051
0.46	8.73524
0.47	8.76978
0.48	8.77439
0.49	8.77373
0.5	8.75893
0.51	8.74807
0.52	8.77406
0.53	8.71222
0.54	8.73458
0.55	8.75498
0.56	8.73952
0.57	8.74379
0.58	8.66221
0.59	8.73031
0.6	8.65925
0.61	8.67504
0.62	8.67471
0.63	8.70366
0.64	8.68031
0.65	8.66748
0.66	8.67044
0.67	8.66682
0.68	8.64938
0.69	8.69215
0.7	8.68524
0.71	8.66846
0.72	8.62965
0.73	8.65432
0.74	8.64873
0.75	8.57932
0.76	8.62504
0.77	8.6405
0.78	8.66452
0.79	8.65202
0.8	8.64708
0.81	8.60432
0.82	8.58524
0.83	8.62537
0.84	8.65169
0.85	8.59478
0.86	8.61682
0.87	8.678
0.88	8.65564
0.89	8.61484
0.9	8.62438
0.91	8.61188
0.92	8.61649
0.93	8.58721
0.94	8.62438
0.95	8.55366
0.96	8.50629
0.97	8.61616
0.98	8.54313
0.99	8.60761
1	8.60498
1.01	8.60103
1.02	8.5678
1.03	8.55761
1.04	8.49708
1.05	8.53557
1.06	8.4757
1.07	8.49938
1.08	8.54313
1.09	8.53622
1.1	8.53096
1.11	8.48392
1.12	8.51912
1.13	8.46024
1.14	8.45366
1.15	8.53491
1.16	8.49708
1.17	8.53557
1.18	8.53688
1.19	8.51978
1.2	8.47899
1.21	8.53721
1.22	8.49576
1.23	8.47734
1.24	8.45596
1.25	8.51386
1.26	8.48622
1.27	8.49116
1.28	8.44971
1.29	8.44478
1.3	8.42043
1.31	8.41418
1.32	8.4201
1.33	8.4678
1.34	8.45103
1.35	8.43491
1.36	8.44214
1.37	8.47175
1.38	8.4053
1.39	8.42931
1.4	8.45135
1.41	8.3882
1.42	8.3951
1.43	8.42833
1.44	8.36944
1.45	8.42767
1.46	8.45629
1.47	8.503
1.48	8.42241
1.49	8.40991
1.5	8.41287
1.51	8.4382
1.52	8.36089
1.53	8.34083
1.54	8.36352
1.55	8.43227
1.56	8.37734
1.57	8.32701
1.58	8.39083
1.59	8.30892
1.6	8.30332
1.61	8.34017
1.62	8.31319
1.63	8.30859
1.64	8.31385
1.65	8.31484
1.66	8.34806
1.67	8.32865
1.68	8.33425
1.69	8.30563
1.7	8.3178
1.71	8.31615
1.72	8.33063
1.73	8.32833
1.74	8.3099
1.75	8.26549
1.76	8.29905
1.77	8.31944
1.78	8.27931
1.79	8.3099
1.8	8.28326
1.81	8.27734
1.82	8.29905
1.83	8.24938
1.84	8.23063
1.85	8.23984
1.86	8.25596
1.87	8.28721
1.88	8.2303
1.89	8.25826
1.9	8.21286
1.91	8.2053
1.92	8.20168
1.93	8.21451
1.94	8.25628
1.95	8.24674
1.96	8.23161
1.97	8.25365
1.98	8.21253
1.99	8.18622
2	8.19641
2.01	8.20234
2.02	8.21878
2.03	8.22174
2.04	8.22306
2.05	8.17964
2.06	8.18391
2.07	8.24148
2.08	8.20332
2.09	8.22339
2.1	8.19872
2.11	8.18293
2.12	8.1747
2.13	8.15727
2.14	8.20826
2.15	8.14641
2.16	8.21484
2.17	8.1872
2.18	8.1747
2.19	8.15036
2.2	8.12043
2.21	8.12964
2.22	8.20332
2.23	8.1724
2.24	8.14214
2.25	8.16714
2.26	8.09246
2.27	8.15398
2.28	8.11089
2.29	8.16122
2.3	8.13622
2.31	8.08358
2.32	8.07042
2.33	8.10398
2.34	8.14148
2.35	8.1349
2.36	8.14378
2.37	8.1474
2.38	8.09707
2.39	8.10332
2.4	8.04082
2.41	8.05529
2.42	8.08753
2.43	8.1326
2.44	8.16944
2.45	8.10825
2.46	8.077
2.47	8.13358
2.48	8.12865
2.49	8.05628
2.5	8.04246
2.51	8.04279
2.52	8.06154
2.53	7.98786
2.54	8.08819
2.55	8.06812
2.56	8.06746
2.57	8.07766
2.58	8.07635
2.59	8.05299
2.6	8.08753
2.61	8.05398
2.62	7.99082
2.63	8.03457
2.64	8.06187
2.65	8.11286
2.66	8.01384
2.67	8.00134
2.68	7.9793
2.69	7.98884
2.7	8.03588
2.71	7.9793
2.72	8.02536
2.73	7.98884
2.74	8.01417
2.75	7.97207
2.76	8.00134
2.77	7.99476
2.78	7.95068
2.79	7.97305
2.8	7.94345
2.81	7.95167
2.82	7.98457
2.83	7.98555
2.84	7.98457
2.85	7.88818
2.86	7.9747
2.87	7.96516
2.88	7.94805
2.89	7.95101
2.9	7.94345
2.91	7.96483
2.92	7.9372
2.93	7.90924
2.94	7.95036
2.95	7.95661
2.96	7.92568
2.97	7.95003
2.98	7.97305
2.99	7.94115
3	7.92338
3.01	7.88391
3.02	7.88785
3.03	7.90134
3.04	7.91779
3.05	7.89772
3.06	7.94542
3.07	7.98884
3.08	7.98029
3.09	7.91417
3.1	7.94443
3.11	7.93128
3.12	7.86779
3.13	7.86483
3.14	7.87305
3.15	7.91022
3.16	7.88917
3.17	7.87996
3.18	7.89378
3.19	7.85989
3.2	7.8247
3.21	7.82075
3.22	7.86779
3.23	7.88884
3.24	7.88029
3.25	7.83884
3.26	7.84739
3.27	7.82305
3.28	7.82206
3.29	7.8622
3.3	7.86187
3.31	7.83752
3.32	7.84312
3.33	7.82239
3.34	7.84016
3.35	7.75989
3.36	7.78292
3.37	7.8441
3.38	7.79509
3.39	7.82766
3.4	7.78719
3.41	7.8145
3.42	7.85002
3.43	7.79904
3.44	7.79312
3.45	7.81121
3.46	7.83555
3.47	7.78621
3.48	7.77864
3.49	7.7839
3.5	7.777
3.51	7.74607
3.52	7.7691
3.53	7.81844
3.54	7.74147
3.55	7.73686
3.56	7.75956
3.57	7.7395
3.58	7.75594
3.59	7.77535
3.6	7.71022
3.61	7.74114
3.62	7.77831
3.63	7.72667
3.64	7.71384
3.65	7.69542
3.66	7.74772
3.67	7.73851
3.68	7.72371
3.69	7.80331
3.7	7.75002
3.71	7.68259
3.72	7.7191
3.73	7.72568
3.74	7.74476
3.75	7.74969
3.76	7.77404
3.77	7.68423
3.78	7.71581
3.79	7.72996
3.8	7.72732
3.81	7.7214
3.82	7.72075
3.83	7.68456
3.84	7.69936
3.85	7.71318
3.86	7.71515
3.87	7.68456
3.88	7.69443
3.89	7.64476
3.9	7.66647
3.91	7.63916
3.92	7.66614
3.93	7.63818
3.94	7.6714
3.95	7.69015
3.96	7.62305
3.97	7.62008
3.98	7.6737
3.99	7.66285
4	7.63357
4.01	7.67634
4.02	7.62962
4.03	7.60956
4.04	7.65495
4.05	7.62962
4.06	7.63851
4.07	7.6589
4.08	7.62765
4.09	7.62173
4.1	7.61022
4.11	7.56581
4.12	7.61087
4.13	7.68686
4.14	7.60824
4.15	7.58258
4.16	7.58423
4.17	7.59015
4.18	7.59804
4.19	7.65956
4.2	7.60726
4.21	7.58489
4.22	7.55298
4.23	7.58522
4.24	7.57436
4.25	7.62239
4.26	7.63785
4.27	7.62008
4.28	7.57831
4.29	7.59311
4.3	7.59772
4.31	7.63489
4.32	7.60791
4.33	7.61943
4.34	7.57798
4.35	7.57864
4.36	7.55989
4.37	7.5589
4.38	7.58916
4.39	7.57239
4.4	7.51679
4.41	7.54969
4.42	7.54804
4.43	7.55199
4.44	7.52337
4.45	7.55989
4.46	7.50594
4.47	7.54936
4.48	7.57535
4.49	7.54706
4.5	7.58061
4.51	7.57074
4.52	7.51383
4.53	7.57633
4.54	7.49574
4.55	7.56153
4.56	7.47238
4.57	7.501
4.58	7.50396
4.59	7.49508
4.6	7.56515
4.61	7.5464
4.62	7.54443
4.63	7.52304
4.64	7.52074
4.65	7.50396
4.66	7.50561
4.67	7.48949
4.68	7.49475
4.69	7.53949
4.7	7.48784
4.71	7.52864
4.72	7.50067
4.73	7.55824
4.74	7.53817
4.75	7.49541
4.76	7.551
4.77	7.47436
4.78	7.42765
4.79	7.49574
4.8	7.48883
4.81	7.47699
4.82	7.46909
4.83	7.48456
4.84	7.45988
4.85	7.45429
4.86	7.45561
4.87	7.45034
4.88	7.44969
4.89	7.46613
4.9	7.43258
4.91	7.40429
4.92	7.45659
4.93	7.45758
4.94	7.41021
4.95	7.42337
4.96	7.42403
4.97	7.45166
4.98	7.45429
4.99	7.45363
5	7.451
5.01	7.41218
5.02	7.43028
5.03	7.42205
5.04	7.42534
5.05	7.45133
5.06	7.38686
5.07	7.40857
5.08	7.42995
5.09	7.44212
5.1	7.39936
5.11	7.38061
5.12	7.39672
5.13	7.41515
5.14	7.3964
5.15	7.37962
5.16	7.37929
5.17	7.36054
5.18	7.38718
5.19	7.37205
5.2	7.38159
5.21	7.33916
5.22	7.36383
5.23	7.3658
5.24	7.351
5.25	7.36185
5.26	7.38521
5.27	7.36514
5.28	7.35001
5.29	7.38061
5.3	7.34606
5.31	7.32863
5.32	7.33916
5.33	7.35922
5.34	7.32468
5.35	7.3658
5.36	7.37863
5.37	7.31087
5.38	7.32929
5.39	7.37205
5.4	7.3885
5.41	7.36942
5.42	7.39047
5.43	7.35725
5.44	7.31218
5.45	7.35922
5.46	7.36843
5.47	7.37139
5.48	7.37929
5.49	7.35166
5.5	7.32962
5.51	7.38982
5.52	7.37633
5.53	7.32238
5.54	7.34179
5.55	7.351
5.56	7.34639
5.57	7.31251
5.58	7.33258
5.59	7.3362
5.6	7.35429
5.61	7.37436
5.62	7.33587
5.63	7.27567
5.64	7.34376
5.65	7.31876
5.66	7.31284
5.67	7.31613
5.68	7.3487
5.69	7.39311
5.7	7.3033
5.71	7.33521
5.72	7.31317
5.73	7.36383
5.74	7.34014
5.75	7.30297
5.76	7.30133
5.77	7.30823
5.78	7.32731
5.79	7.30823
5.8	7.28685
5.81	7.29179
5.82	7.27073
5.83	7.31646
5.84	7.29573
5.85	7.27567
5.86	7.3112
5.87	7.27073
5.88	7.23488
5.89	7.23521
5.9	7.18948
5.91	7.28422
5.92	7.24804
5.93	7.23817
5.94	7.33554
5.95	7.33356
5.96	7.24475
5.97	7.24376
5.98	7.23225
5.99	7.19672
6	7.22896
6.01	7.20823
6.02	7.28422
6.03	7.2329
6.04	7.24705
6.05	7.23521
6.06	7.22863
6.07	7.2079
6.08	7.19573
6.09	7.2579
6.1	7.26218
6.11	7.24869
6.12	7.25494
6.13	7.18619
6.14	7.1806
6.15	7.2283
6.16	7.18619
6.17	7.22896
6.18	7.17698
6.19	7.16974
6.2	7.19869
6.21	7.17303
6.22	7.18652
6.23	7.24869
6.24	7.22402
6.25	7.24113
6.26	7.27238
6.27	7.1704
6.28	7.17303
6.29	7.18981
6.3	7.24146
6.31	7.18718
6.32	7.17961
6.33	7.16711
6.34	7.16317
6.35	7.20067
6.36	7.10691
6.37	7.12994
6.38	7.22073
6.39	7.23981
6.4	7.19935
6.41	7.1908
6.42	7.20461
6.43	7.20626
6.44	7.15494
6.45	7.15363
6.46	7.12336
6.47	7.17896
6.48	7.17369
6.49	7.13981
6.5	7.18915
6.51	7.17336
6.52	7.12205
6.53	7.09902
6.54	7.20132
6.55	7.20461
6.56	7.13915
6.57	7.1408
6.58	7.11284
6.59	7.16317
6.6	7.15823
6.61	7.18488
6.62	7.15659
6.63	7.10395
6.64	7.12731
6.65	7.15527
6.66	7.13718
6.67	7.13027
6.68	7.12764
6.69	7.0704
6.7	7.06382
6.71	7.1181
6.72	7.12731
6.73	7.14409
6.74	7.15001
6.75	7.0931
6.76	7.14178
6.77	7.11843
6.78	7.11678
6.79	7.15461
6.8	7.13027
6.81	7.13389
6.82	7.14639
6.83	7.12566
6.84	7.10428
6.85	7.09474
6.86	7.10395
6.87	7.09277
6.88	7.05889
6.89	7.0806
6.9	7.0908
6.91	7.11744
6.92	7.11185
6.93	7.09705
6.94	7.08586
6.95	7.09178
6.96	7.13586
6.97	7.08981
6.98	7.05922
6.99	7.08093
7	7.08948
7.01	7.10001
7.02	7.07829
7.03	7.0931
7.04	7.11612
7.05	7.08586
7.06	7.10395
7.07	7.10066
7.08	7.06711
7.09	7.09639
7.1	7.1204
7.11	7.04441
7.12	7.01514
7.13	7.08257
7.14	7.08718
7.15	7.07862
7.16	7.10033
7.17	7.07533
7.18	7.06316
7.19	7.01678
7.2	7.09737
7.21	7.05198
7.22	7.0954
7.23	7.07928
7.24	7.0102
7.25	7.01579
7.26	7.02467
7.27	7.06974
7.28	7.0352
7.29	7.06876
7.3	7.10297
7.31	7.04507
7.32	7.05922
7.33	7.06152
7.34	7.00658
7.35	7.02171
7.36	7.04639
7.37	7.02435
7.38	6.97566
7.39	6.99046
7.4	6.99408
7.41	6.9829
7.42	7.00658
7.43	7.0352
7.44	7.03487
7.45	7.0375
7.46	7.01711
7.47	7.05297
7.48	6.98027
7.49	7.04211
7.5	7.05231
7.51	7.01283
7.52	7.03224
7.53	7.04244
7.54	7.01842
7.55	6.98224
7.56	7.04671
7.57	6.97007
7.58	7.01777
7.59	6.99342
7.6	7.02698
7.61	6.99375
7.62	7.00132
7.63	6.9875
7.64	7.02303
7.65	6.99342
7.66	6.96941
7.67	7.00823
7.68	7.01349
7.69	6.94375
7.7	7.00231
7.71	6.95724
7.72	7.03421
7.73	6.98125
7.74	6.95066
7.75	6.96579
7.76	7.02171
7.77	6.95724
7.78	6.96086
7.79	6.97434
7.8	7.01645
7.81	6.95329
7.82	7.03882
7.83	7.00987
7.84	6.96217
7.85	6.97731
7.86	6.93816
7.87	6.98816
7.88	6.99145
7.89	6.96612
7.9	6.94276
7.91	6.93948
7.92	6.93849
7.93	6.92599
7.94	6.96184
7.95	7.01152
7.96	6.975
7.97	6.98684
7.98	6.90296
7.99	6.90526
8	6.93816
8.01	6.93717
8.02	6.92697
8.03	6.91645
8.04	6.97007
8.05	6.9352
8.06	6.9398
8.07	6.93553
8.08	6.92566
8.09	6.92862
8.1	6.92994
8.11	6.91875
8.12	6.92796
8.13	6.91086
8.14	6.94638
8.15	6.92303
8.16	6.89868
8.17	6.94967
8.18	6.93224
8.19	6.91941
8.2	6.87961
8.21	6.87961
8.22	6.85921
8.23	6.94474
8.24	6.91053
8.25	6.89342
8.26	6.91283
8.27	6.94803
8.28	6.88125
8.29	6.88388
8.3	6.90954
8.31	6.86645
8.32	6.86184
8.33	6.87829
8.34	6.90428
8.35	6.93684
8.36	6.95198
8.37	6.87237
8.38	6.85888
8.39	6.92665
8.4	6.93783
8.41	6.95066
8.42	6.89868
8.43	6.88882
8.44	6.89638
8.45	6.87599
8.46	6.88026
8.47	6.88092
8.48	6.90461
8.49	6.88158
8.5	6.90066
8.51	6.84474
8.52	6.84474
8.53	6.88717
8.54	6.89605
8.55	6.875
8.56	6.88915
8.57	6.91415
8.58	6.91744
8.59	6.88684
8.6	6.84737
8.61	6.88816
8.62	6.85263
8.63	6.87434
8.64	6.87763
8.65	6.89868
8.66	6.85395
8.67	6.86283
8.68	6.87401
8.69	6.88487
8.7	6.88947
8.71	6.84276
8.72	6.89145
8.73	6.8875
8.74	6.9125
8.75	6.87303
8.76	6.85757
8.77	6.87829
8.78	6.92632
8.79	6.90855
8.8	6.87039
8.81	6.87039
8.82	6.88257
8.83	6.85954
8.84	6.86085
8.85	6.88553
8.86	6.84934
8.87	6.85493
8.88	6.83717
8.89	6.84967
8.9	6.85789
8.91	6.85855
8.92	6.82105
8.93	6.86151
8.94	6.86579
8.95	6.82533
8.96	6.7648
8.97	6.79572
8.98	6.83618
8.99	6.8102
9	6.85263
9.01	6.85855
9.02	6.8648
9.03	6.81513
9.04	6.82467
9.05	6.86776
9.06	6.80395
9.07	6.81612
9.08	6.79737
9.09	6.79342
9.1	6.7898
9.11	6.82368
9.12	6.82862
9.13	6.82237
9.14	6.85625
9.15	6.86382
9.16	6.8273
9.17	6.83092
9.18	6.82697
9.19	6.84375
9.2	6.81349
9.21	6.81513
9.22	6.81743
9.23	6.85099
9.24	6.81579
9.25	6.76743
9.26	6.77862
9.27	6.81184
9.28	6.8125
9.29	6.80362
9.3	6.80033
9.31	6.8148
9.32	6.7875
9.33	6.84934
9.34	6.77631
9.35	6.80559
9.36	6.79835
9.37	6.79638
9.38	6.7796
9.39	6.75065
9.4	6.80395
9.41	6.77533
9.42	6.82895
9.43	6.82631
9.44	6.80822
9.45	6.72664
9.46	6.79901
9.47	6.8273
9.48	6.82533
9.49	6.82171
9.5	6.80723
9.51	6.79177
9.52	6.80625
9.53	6.79309
9.54	6.79671
9.55	6.76447
9.56	6.81513
9.57	6.78816
9.58	6.76842
9.59	6.76348
9.6	6.77829
9.61	6.75954
9.62	6.76875
9.63	6.78914
9.64	6.77269
9.65	6.80164
9.66	6.74802
9.67	6.75987
9.68	6.71546
9.69	6.75625
9.7	6.78289
9.71	6.79243
9.72	6.81513
9.73	6.79473
9.74	6.78092
9.75	6.75098
9.76	6.77335
9.77	6.77105
9.78	6.76809
9.79	6.71973
9.8	6.71513
9.81	6.79901
9.82	6.77631
9.83	6.73355
9.84	6.71644
9.85	6.72467
9.86	6.72006
9.87	6.72664
9.88	6.71579
9.89	6.79243
9.9	6.76842
9.91	6.7773
9.92	6.77204
9.93	6.77006
9.94	6.77006
9.95	6.73914
9.96	6.76809
9.97	6.75
9.98	6.75658
9.99	6.72927
10	6.78454
10.01	6.74802
10.02	6.79013
10.03	6.72434
10.04	6.75756
10.05	6.77269
10.06	6.77697
10.07	6.73618
10.08	6.70789
10.09	6.7148
10.1	6.68651
10.11	6.67499
10.12	6.75197
10.13	6.73947
10.14	6.72401
10.15	6.72861
10.16	6.69046
10.17	6.70986
10.18	6.74243
10.19	6.73355
10.2	6.71282
10.21	6.72269
10.22	6.73322
10.23	6.69868
10.24	6.77368
10.25	6.75197
10.26	6.7125
10.27	6.75658
10.28	6.71447
10.29	6.69078
10.3	6.73322
10.31	6.75362
10.32	6.71973
10.33	6.72006
10.34	6.7069
10.35	6.69539
10.36	6.71546
10.37	6.67203
10.38	6.71546
10.39	6.65197
10.4	6.64605
10.41	6.70822
10.42	6.71579
10.43	6.72105
10.44	6.69572
10.45	6.73519
10.46	6.67499
10.47	6.69703
10.48	6.68355
10.49	6.72434
10.5	6.72072
10.51	6.70789
10.52	6.68717
10.53	6.68157
10.54	6.68256
10.55	6.66019
10.56	6.69046
10.57	6.70394
10.58	6.71118
10.59	6.69835
10.6	6.7125
10.61	6.69375
10.62	6.66907
10.63	6.70592
10.64	6.71019
10.65	6.7319
10.66	6.71644
10.67	6.66611
10.68	6.71019
10.69	6.69177
10.7	6.65361
10.71	6.70296
10.72	6.71348
10.73	6.68388
10.74	6.64769
10.75	6.70559
10.76	6.66414
10.77	6.65723
10.78	6.66743
10.79	6.69506
10.8	6.68124
10.81	6.69671
10.82	6.69342
10.83	6.67467
10.84	6.71282
10.85	6.66809
10.86	6.65789
10.87	6.71348
10.88	6.67861
10.89	6.6421
10.9	6.72927
10.91	6.66217
10.92	6.66611
10.93	6.68486
10.94	6.6694
10.95	6.65953
10.96	6.58749
10.97	6.58552
10.98	6.6671
10.99	6.66217
11	6.64506
11.01	6.66513
11.02	6.65295
11.03	6.74079
11.04	6.68256
11.05	6.64341
11.06	6.65953
11.07	6.6217
11.08	6.65888
11.09	6.58749
11.1	6.6319
11.11	6.64276
11.12	6.65493
11.13	6.64999
11.14	6.65855
11.15	6.64802
11.16	6.67467
11.17	6.65526
11.18	6.64276
11.19	6.61216
11.2	6.61216
11.21	6.65756
11.22	6.64901
11.23	6.61414
11.24	6.65855
11.25	6.6444
11.26	6.65197
11.27	6.63387
11.28	6.64868
11.29	6.60986
11.3	6.65756
11.31	6.64769
11.32	6.6194
11.33	6.66381
11.34	6.67039
11.35	6.64539
11.36	6.59769
11.37	6.67532
11.38	6.68486
11.39	6.62762
11.4	6.62466
11.41	6.5842
11.42	6.60197
11.43	6.60328
11.44	6.59703
11.45	6.6342
11.46	6.66743
11.47	6.66282
11.48	6.64144
11.49	6.64045
11.5	6.64802
11.51	6.62335
11.52	6.6319
11.53	6.66447
11.54	6.64966
11.55	6.65493
11.56	6.63519
11.57	6.65624
11.58	6.62565
11.59	6.64276
11.6	6.64506
11.61	6.62828
11.62	6.65657
11.63	6.64309
11.64	6.6148
11.65	6.63651
11.66	6.65822
11.67	6.64736
11.68	6.63618
11.69	6.67203
11.7	6.66776
11.71	6.63618
11.72	6.59572
11.73	6.63618
11.74	6.64539
11.75	6.58651
11.76	6.60558
11.77	6.68256
11.78	6.61841
11.79	6.59802
11.8	6.61545
11.81	6.61183
11.82	6.61085
11.83	6.60394
11.84	6.5944
11.85	6.59835
11.86	6.62137
11.87	6.5921
11.88	6.61776
11.89	6.58848
11.9	6.58256
11.91	6.55098
11.92	6.60065
11.93	6.56479
11.94	6.58716
11.95	6.62894
11.96	6.58354
11.97	6.61809
11.98	6.61216
11.99	6.58914
12	6.62499
12.01	6.63914
12.02	6.58256
12.03	6.59703
12.04	6.57565
12.05	6.61019
12.06	6.60591
12.07	6.58815
12.08	6.58519
12.09	6.58881
12.1	6.58914
12.11	6.58749
12.12	6.56479
12.13	6.61118
12.14	6.57302
12.15	6.59605
12.16	6.56447
12.17	6.56611
12.18	6.58552
12.19	6.58618
12.2	6.59868
12.21	6.57466
12.22	6.59045
12.23	6.59473
12.24	6.60262
12.25	6.60526
12.26	6.55131
12.27	6.59802
12.28	6.62302
12.29	6.61973
12.3	6.55328
12.31	6.56249
12.32	6.59078
12.33	6.56644
12.34	6.55164
12.35	6.55822
12.36	6.57697
12.37	6.56447
12.38	6.5671
12.39	6.60394
12.4	6.59473
12.41	6.57466
12.42	6.58256
12.43	6.58387
12.44	6.59473
12.45	6.60065
12.46	6.54177
12.47	6.56874
12.48	6.58651
12.49	6.59045
12.5	6.59769
12.51	6.57335
12.52	6.60164
12.53	6.59177
12.54	6.62532
12.55	6.57302
12.56	6.53552
12.57	6.55427
12.58	6.60394
12.59	6.5467
12.6	6.58947
12.61	6.58914
12.62	6.58322
12.63	6.60427
12.64	6.56381
12.65	6.56512
12.66	6.56118
12.67	6.59473
12.68	6.55196
12.69	6.53782
12.7	6.56282
12.71	6.55394
12.72	6.57072
12.73	6.53979
12.74	6.53091
12.75	6.57729
12.76	6.57072
12.77	6.52466
12.78	6.58124
12.79	6.55328
12.8	6.60986
12.81	6.56414
12.82	6.57039
12.83	6.56019
12.84	6.57894
12.85	6.55789
12.86	6.56677
12.87	6.58815
12.88	6.56249
12.89	6.57137
12.9	6.5819
12.91	6.54275
12.92	6.53881
12.93	6.54045
12.94	6.49078
12.95	6.55624
12.96	6.55525
12.97	6.54473
12.98	6.57664
12.99	6.51644
13	6.50065
13.01	6.56743
13.02	6.51742
13.03	6.58091
13.04	6.54933
13.05	6.53486
13.06	6.56447
13.07	6.55854
13.08	6.53914
13.09	6.57565
13.1	6.5671
13.11	6.54999
13.12	6.56348
13.13	6.54868
13.14	6.49703
13.15	6.53223
13.16	6.55032
13.17	6.49078
13.18	6.52729
13.19	6.54012
13.2	6.52269
13.21	6.55493
13.22	6.52499
13.23	6.56447
13.24	6.51775
13.25	6.53025
13.26	6.54045
13.27	6.57269
13.28	6.61743
13.29	6.52039
13.3	6.52729
13.31	6.48288
13.32	6.45854
13.33	6.53124
13.34	6.50394
13.35	6.52696
13.36	6.52071
13.37	6.55394
13.38	6.52466
13.39	6.55887
13.4	6.53387
13.41	6.49867
13.42	6.48617
13.43	6.50361
13.44	6.53585
13.45	6.57565
13.46	6.56907
13.47	6.52828
13.48	6.52631
13.49	6.49538
13.5	6.53815
13.51	6.52762
13.52	6.54933
13.53	6.55525
13.54	6.5217
13.55	6.60328
13.56	6.57565
13.57	6.47894
13.58	6.53881
13.59	6.50098
13.6	6.49407
13.61	6.52894
13.62	6.51019
13.63	6.49867
13.64	6.54275
13.65	6.53223
13.66	6.48486
13.67	6.49834
13.68	6.54802
13.69	6.5592
13.7	6.57631
13.71	6.5194
13.72	6.53091
13.73	6.54539
13.74	6.51808
13.75	6.48387
13.76	6.51249
13.77	6.55953
13.78	6.5365
13.79	6.53387
13.8	6.5342
13.81	6.52499
13.82	6.52203
13.83	6.54275
13.84	6.41775
13.85	6.51315
13.86	6.55822
13.87	6.55427
13.88	6.52532
13.89	6.48288
13.9	6.51183
13.91	6.54012
13.92	6.52762
13.93	6.54374
13.94	6.52071
13.95	6.51117
13.96	6.56874
13.97	6.5217
13.98	6.53256
13.99	6.51644
14	6.53157
14.01	6.56249
14.02	6.54473
14.03	6.50065
14.04	6.45953
14.05	6.51249
14.06	6.49933
14.07	6.54868
14.08	6.53289
14.09	6.47433
14.1	6.4842
14.11	6.5194
14.12	6.50657
14.13	6.474
14.14	6.49966
14.15	6.49242
14.16	6.54637
14.17	6.52302
14.18	6.50131
14.19	6.53815
14.2	6.49012
14.21	6.50361
14.22	6.46709
14.23	6.50986
14.24	6.51907
14.25	6.48519
14.26	6.53157
14.27	6.51019
14.28	6.48848
14.29	6.49571
14.3	6.5296
14.31	6.45887
14.32	6.49045
14.33	6.51183
14.34	6.52598
14.35	6.55887
14.36	6.53946
14.37	6.50163
14.38	6.524
14.39	6.4717
14.4	6.5092
14.41	6.5171
14.42	6.52433
14.43	6.50361
14.44	6.45887
14.45	6.48519
14.46	6.46282
14.47	6.5115
14.48	6.46808
14.49	6.48321
14.5	6.46282
14.51	6.4819
14.52	6.52664
14.53	6.47203
14.54	6.499
14.55	6.47137
14.56	6.47203
14.57	6.47959
14.58	6.41611
14.59	6.45459
14.6	6.43683
14.61	6.45459
14.62	6.49802
14.63	6.47795
14.64	6.46907
14.65	6.52269
14.66	6.52104
14.67	6.46446
14.68	6.45098
14.69	6.43058
14.7	6.45953
14.71	6.49802
14.72	6.47038
14.73	6.49506
14.74	6.45723
14.75	6.46611
14.76	6.53617
14.77	6.44769
14.78	6.4944
14.79	6.44505
14.8	6.50098
14.81	6.46117
14.82	6.46841
14.83	6.49473
14.84	6.4467
14.85	6.41972
14.86	6.44275
14.87	6.45986
14.88	6.46479
14.89	6.46183
14.9	6.50723
14.91	6.41841
14.92	6.40196
14.93	6.45854
14.94	6.52762
14.95	6.44933
14.96	6.47663
14.97	6.46446
14.98	6.47894
14.99	6.47729
15	6.4694
15.01	6.50624
15.02	6.49703
15.03	6.53519
15.04	6.49867
15.05	6.48223
15.06	6.46117
15.07	6.42038
15.08	6.41972
15.09	6.46446
15.1	6.4592
15.11	6.47795
15.12	6.4319
15.13	6.4842
15.14	6.48848
15.15	6.47334
15.16	6.449
15.17	6.49012
15.18	6.4865
15.19	6.45459
15.2	6.47894
15.21	6.44078
15.22	6.45394
15.23	6.49769
15.24	6.48321
15.25	6.46578
15.26	6.43091
15.27	6.42203
15.28	6.40459
15.29	6.49308
15.3	6.48058
15.31	6.47104
15.32	6.47894
15.33	6.43255
15.34	6.4592
15.35	6.45032
15.36	6.42828
15.37	6.47565
15.38	6.47499
15.39	6.48881
15.4	6.5296
15.41	6.4763
15.42	6.45887
15.43	6.49473
15.44	6.47466
15.45	6.48486
15.46	6.43946
15.47	6.44374
15.48	6.42038
15.49	6.44801
15.5	6.42499
15.51	6.42532
15.52	6.43453
15.53	6.42433
15.54	6.46019
15.55	6.43815
15.56	6.49078
15.57	6.45953
15.58	6.47663
15.59	6.4763
15.6	6.45163
15.61	6.46216
15.62	6.48683
15.63	6.47499
15.64	6.49012
15.65	6.44111
15.66	6.42203
15.67	6.41841
15.68	6.46183
15.69	6.46084
15.7	6.43749
15.71	6.49999
15.72	6.45624
15.73	6.43453
15.74	6.42236
15.75	6.48946
15.76	6.49703
15.77	6.52894
15.78	6.4615
15.79	6.42367
15.8	6.4092
15.81	6.39637
15.82	6.40295
15.83	6.48683
15.84	6.44144
15.85	6.43453
15.86	6.43453
15.87	6.45657
15.88	6.42334
15.89	6.41643
15.9	6.41183
15.91	6.47236
15.92	6.37499
15.93	6.3888
15.94	6.44867
15.95	6.43749
15.96	6.41216
15.97	6.40361
15.98	6.42236
15.99	6.38518
16	6.44999
16.01	6.44999
16.02	6.43847
16.03	6.41545
16.04	6.46644
16.05	6.44242
16.06	6.44966
16.07	6.44703
16.08	6.41413
16.09	6.48453
16.1	6.48223
16.11	6.44703
16.12	6.45854
16.13	6.46413
16.14	6.48387
16.15	6.45854
16.16	6.4319
16.17	6.42301
16.18	6.41084
16.19	6.40953
16.2	6.45163
16.21	6.48256
16.22	6.40788
16.23	6.40426
16.24	6.4388
16.25	6.43321
16.26	6.42071
16.27	6.46644
16.28	6.43584
16.29	6.4115
16.3	6.43025
16.31	6.4013
16.32	6.4865
16.33	6.44275
16.34	6.40657
16.35	6.41808
16.36	6.37235
16.37	6.42301
16.38	6.46348
16.39	6.40624
16.4	6.39801
16.41	6.46117
16.42	6.46479
16.43	6.4467
16.44	6.43025
16.45	6.43058
16.46	6.41347
16.47	6.43716
16.48	6.45723
16.49	6.42597
16.5	6.42236
16.51	6.42992
16.52	6.48946
16.53	6.46446
16.54	6.38288
16.55	6.40097
16.56	6.424
16.57	6.45755
16.58	6.44505
16.59	6.45032
16.6	6.45887
16.61	6.45196
16.62	6.4842
16.63	6.50196
16.64	6.45723
16.65	6.42565
16.66	6.40986
16.67	6.41742
16.68	6.46611
16.69	6.5046
16.7	6.44407
16.71	6.43453
16.72	6.42861
16.73	6.46183
16.74	6.49078
16.75	6.44703
16.76	6.46249
16.77	6.43979
16.78	6.38354
16.79	6.44012
16.8	6.40887
16.81	6.36183
16.82	6.41051
16.83	6.42236
16.84	6.39867
16.85	6.40558
16.86	6.42104
16.87	6.42236
16.88	6.424
16.89	6.4217
16.9	6.43617
16.91	6.4717
16.92	6.48946
16.93	6.44867
16.94	6.40755
16.95	6.38485
16.96	6.39604
16.97	6.4342
16.98	6.45624
16.99	6.41611
17	6.46841
17.01	6.44407
17.02	6.44308
17.03	6.37071
17.04	6.40459
17.05	6.46413
17.06	6.43716
17.07	6.44801
17.08	6.39966
17.09	6.46775
17.1	6.44736
17.11	6.45755
17.12	6.42268
17.13	6.41545
17.14	6.43387
17.15	6.42926
17.16	6.41084
17.17	6.40788
17.18	6.37038
17.19	6.3592
17.2	6.39538
17.21	6.424
17.22	6.42597
17.23	6.39933
17.24	6.40591
17.25	6.37466
17.26	6.4138
17.27	6.39472
17.28	6.39439
17.29	6.40196
17.3	6.44571
17.31	6.39768
17.32	6.40361
17.33	6.45229
17.34	6.44834
17.35	6.41545
17.36	6.45394
17.37	6.42203
17.38	6.41545
17.39	6.40426
17.4	6.41907
17.41	6.39637
17.42	6.40426
17.43	6.43913
17.44	6.43354
17.45	6.41512
17.46	6.47269
17.47	6.44341
17.48	6.41874
17.49	6.42071
17.5	6.45953
17.51	6.39078
17.52	6.39768
17.53	6.42071
17.54	6.41578
17.55	6.40722
17.56	6.42597
17.57	6.40064
17.58	6.41413
17.59	6.44834
17.6	6.38354
17.61	6.399
17.62	6.399
17.63	6.40262
17.64	6.41808
17.65	6.39275
17.66	6.46874
17.67	6.40657
17.68	6.38683
17.69	6.41446
17.7	6.40887
17.71	6.41315
17.72	6.41841
17.73	6.45065
17.74	6.42104
17.75	6.39834
17.76	6.43716
17.77	6.42334
17.78	6.39637
17.79	6.38979
17.8	6.41018
17.81	6.44341
17.82	6.41051
17.83	6.39637
17.84	6.43584
17.85	6.43782
17.86	6.43584
17.87	6.43979
17.88	6.39078
17.89	6.40163
17.9	6.42005
17.91	6.4013
17.92	6.38749
17.93	6.39209
17.94	6.44834
17.95	6.42894
17.96	6.38518
17.97	6.37137
17.98	6.44933
17.99	6.39505
18	6.44308
18.01	6.39736
18.02	6.40953
18.03	6.41545
18.04	6.38157
18.05	6.42301
18.06	6.38288
18.07	6.36446
18.08	6.36939
18.09	6.33847
18.1	6.37926
18.11	6.40361
18.12	6.35196
18.13	6.34341
18.14	6.40755
18.15	6.44374
18.16	6.40953
18.17	6.39801
18.18	6.38979
18.19	6.39834
18.2	6.42565
18.21	6.41183
18.22	6.41808
18.23	6.42466
18.24	6.39341
18.25	6.44505
18.26	6.39933
18.27	6.43486
18.28	6.40426
18.29	6.40788
18.3	6.4115
18.31	6.4138
18.32	6.40361
18.33	6.41183
18.34	6.39439
18.35	6.34735
18.36	6.41742
18.37	6.43157
18.38	6.4069
18.39	6.44801
18.4	6.40624
18.41	6.39999
18.42	6.38025
18.43	6.37301
18.44	6.39801
18.45	6.39045
18.46	6.3717
18.47	6.40328
18.48	6.39045
18.49	6.40328
18.5	6.34999
18.51	6.36216
18.52	6.39439
18.53	6.40558
18.54	6.38617
18.55	6.37235
18.56	6.39341
18.57	6.40722
18.58	6.3865
18.59	6.38814
18.6	6.37334
18.61	6.36907
18.62	6.38157
18.63	6.41775
18.64	6.44736
18.65	6.40821
18.66	6.38453
18.67	6.39078
18.68	6.36084
18.69	6.39341
18.7	6.38518
18.71	6.38091
18.72	6.44045
18.73	6.42433
18.74	6.4069
18.75	6.38255
18.76	6.37663
18.77	6.33288
18.78	6.35525
18.79	6.35196
18.8	6.36775
18.81	6.36216
18.82	6.41578
18.83	6.39308
18.84	6.36775
18.85	6.40887
18.86	6.4069
18.87	6.44242
18.88	6.40624
18.89	6.41972
18.9	6.45558
18.91	6.38551
18.92	6.39078
18.93	6.42005
18.94	6.35755
18.95	6.38913
18.96	6.37334
18.97	6.37992
18.98	6.39078
18.99	6.37038
19	6.42433
19.01	6.43354
19.02	6.40591
19.03	6.43946
19.04	6.35558
19.05	6.39176
19.06	6.37564
19.07	6.40624
19.08	6.37597
19.09	6.33749
19.1	6.41183
19.11	6.44505
19.12	6.42367
19.13	6.35722
19.14	6.33387
19.15	6.3967
19.16	6.37071
19.17	6.39176
19.18	6.3865
19.19	6.34308
19.2	6.39341
19.21	6.38617
19.22	6.40525
19.23	6.39111
19.24	6.38453
19.25	6.36841
19.26	6.39078
19.27	6.46348
19.28	6.3865
19.29	6.40624
19.3	6.34834
19.31	6.34735
19.32	6.39374
19.33	6.39176
19.34	6.42236
19.35	6.35887
19.36	6.37071
19.37	6.43946
19.38	6.39867
19.39	6.42104
19.4	6.41216
19.41	6.3763
19.42	6.34768
19.43	6.37499
19.44	6.38485
19.45	6.38814
19.46	6.31643
19.47	6.38617
19.48	6.36084
19.49	6.4069
19.5	6.42367
19.51	6.38617
19.52	6.33716
19.53	6.40558
19.54	6.46874
19.55	6.41084
19.56	6.36117
19.57	6.34143
19.58	6.41018
19.59	6.38551
19.6	6.38946
19.61	6.38288
19.62	6.39407
19.63	6.3638
19.64	6.38058
19.65	6.3865
19.66	6.36183
19.67	6.36018
19.68	6.40722
19.69	6.38584
19.7	6.36972
19.71	6.36216
19.72	6.38617
19.73	6.41841
19.74	6.42795
19.75	6.38946
19.76	6.41282
19.77	6.34702
19.78	6.34637
19.79	6.37696
19.8	6.33716
19.81	6.34176
19.82	6.36216
19.83	6.349
19.84	6.34472
19.85	6.39736
19.86	6.38518
19.87	6.33222
19.88	6.36808
19.89	6.39275
19.9	6.3467
19.91	6.34439
19.92	6.3365
19.93	6.37532
19.94	6.37696
19.95	6.36939
19.96	6.32663
19.97	6.3661
19.98	6.34637
19.99	6.39045
20	6.35163
20.01	6.36249
20.02	6.38157
20.03	6.3388
20.04	6.34999
20.05	6.36643
20.06	6.34966
20.07	6.35854
20.08	6.35196
20.09	6.34867
20.1	6.33584
20.11	6.36117
20.12	6.33288
20.13	6.36413
20.14	6.39111
20.15	6.39571
20.16	6.40525
20.17	6.37334
20.18	6.324
20.19	6.36314
20.2	6.3365
20.21	6.37433
20.22	6.40032
20.23	6.36709
20.24	6.32038
20.25	6.3388
20.26	6.3161
20.27	6.37104
20.28	6.38321
20.29	6.399
20.3	6.37433
20.31	6.35821
20.32	6.3217
20.33	6.35328
20.34	6.38025
20.35	6.39275
20.36	6.37038
20.37	6.41841
20.38	6.35985
20.39	6.34275
20.4	6.37828
20.41	6.32268
20.42	6.31545
20.43	6.39472
20.44	6.40097
20.45	6.44867
20.46	6.38979
20.47	6.37071
20.48	6.3888
20.49	6.31051
20.5	6.39867
20.51	6.33321
20.52	6.3661
20.53	6.3036
20.54	6.3013
20.55	6.30689
20.56	6.33716
20.57	6.3888
20.58	6.36018
20.59	6.38157
20.6	6.37301
20.61	6.349
20.62	6.34308
20.63	6.34702
20.64	6.37597
20.65	6.36907
20.66	6.33716
20.67	6.36018
20.68	6.3615
20.69	6.36413
20.7	6.3365
20.71	6.40262
20.72	6.4388
20.73	6.32762
20.74	6.37334
20.75	6.3717
20.76	6.41808
20.77	6.3536
20.78	6.39111
20.79	6.36676
20.8	6.3013
20.81	6.35459
20.82	6.35031
20.83	6.36249
20.84	6.34176
20.85	6.33716
20.86	6.34374
20.87	6.37071
20.88	6.35656
20.89	6.39999
20.9	6.35624
20.91	6.39637
20.92	6.4092
20.93	6.37532
20.94	6.38485
20.95	6.35328
20.96	6.38288
20.97	6.33354
20.98	6.30525
20.99	6.34308
21	6.33124
21.01	6.33485
21.02	6.35262
21.03	6.34571
21.04	6.35689
21.05	6.32005
21.06	6.36051
21.07	6.34571
21.08	6.3365
21.09	6.39867
21.1	6.35492
21.11	6.37696
21.12	6.36512
21.13	6.29472
21.14	6.35426
21.15	6.40229
21.16	6.37926
21.17	6.41545
21.18	6.374
21.19	6.3661
21.2	6.32137
21.21	6.35097
21.22	6.37104
21.23	6.3661
21.24	6.34176
21.25	6.36907
21.26	6.35755
21.27	6.35031
21.28	6.41841
21.29	6.36446
21.3	6.38189
21.31	6.35393
21.32	6.33913
21.33	6.36117
21.34	6.36413
21.35	6.37466
21.36	6.36446
21.37	6.32696
21.38	6.32268
21.39	6.33485
21.4	6.31281
21.41	6.32564
21.42	6.31051
21.43	6.34801
21.44	6.37926
21.45	6.36084
21.46	6.33156
21.47	6.38288
21.48	6.37729
21.49	6.3592
21.5	6.37235
21.51	6.35492
21.52	6.36643
21.53	6.33979
21.54	6.33847
21.55	6.349
21.56	6.3388
21.57	6.36874
21.58	6.3365
21.59	6.3842
21.6	6.35328
21.61	6.32433
21.62	6.34801
21.63	6.34209
21.64	6.34637
21.65	6.34571
21.66	6.35788
21.67	6.32367
21.68	6.30656
21.69	6.30097
21.7	6.30262
21.71	6.32827
21.72	6.36347
21.73	6.34801
21.74	6.33485
21.75	6.35525
21.76	6.31676
21.77	6.36051
21.78	6.40229
21.79	6.38847
21.8	6.33814
21.81	6.32564
21.82	6.33452
21.83	6.40262
21.84	6.40426
21.85	6.37532
21.86	6.38091
21.87	6.40295
21.88	6.39012
21.89	6.33814
21.9	6.32663
21.91	6.3217
21.92	6.36512
21.93	6.31281
21.94	6.3342
21.95	6.34209
21.96	6.39045
21.97	6.4013
21.98	6.38025
21.99	6.33387
22	6.31873
22.01	6.3717
22.02	6.35426
22.03	6.34735
22.04	6.34999
22.05	6.36874
22.06	6.35953
22.07	6.37532
22.08	6.36643
22.09	6.3286
22.1	6.35722
22.11	6.34472
22.12	6.33485
22.13	6.31479
22.14	6.33124
22.15	6.36117
22.16	6.37762
22.17	6.38321
22.18	6.35426
22.19	6.41084
22.2	6.36183
22.21	6.36347
22.22	6.37532
22.23	6.34801
22.24	6.31676
22.25	6.32071
22.26	6.30887
22.27	6.34341
22.28	6.3013
22.29	6.30591
22.3	6.39966
22.31	6.36314
22.32	6.30229
22.33	6.32762
22.34	6.33781
22.35	6.38584
22.36	6.39604
22.37	6.36117
22.38	6.33091
22.39	6.34571
22.4	6.29735
22.41	6.32071
22.42	6.36972
22.43	6.37795
22.44	6.30229
22.45	6.31413
22.46	6.36907
22.47	6.3388
22.48	6.32893
22.49	6.34242
22.5	6.38979
22.51	6.31051
22.52	6.33781
22.53	6.374
22.54	6.31972
22.55	6.35887
22.56	6.30229
22.57	6.30097
22.58	6.34966
22.59	6.34801
22.6	6.35295
22.61	6.35459
22.62	6.36808
22.63	6.37235
22.64	6.3263
22.65	6.3013
22.66	6.32498
22.67	6.36051
22.68	6.32959
22.69	6.33518
22.7	6.33124
22.71	6.33189
22.72	6.31545
22.73	6.31972
22.74	6.30722
22.75	6.32531
22.76	6.2865
22.77	6.30887
22.78	6.32762
22.79	6.31413
22.8	6.36479
22.81	6.37926
22.82	6.31413
22.83	6.34702
22.84	6.39966
22.85	6.34999
22.86	6.32334
22.87	6.32729
22.88	6.34209
22.89	6.34077
22.9	6.35722
22.91	6.29604
22.92	6.29176
22.93	6.32827
22.94	6.32663
22.95	6.40229
22.96	6.3786
22.97	6.33255
22.98	6.31939
22.99	6.35722
23	6.27169
23.01	6.38288
23.02	6.34834
23.03	6.30327
23.04	6.35426
23.05	6.30788
23.06	6.28979
23.07	6.28222
23.08	6.33485
23.09	6.37564
23.1	6.38485
23.11	6.33452
23.12	6.33321
23.13	6.32762
23.14	6.30459
23.15	6.34308
23.16	6.33025
23.17	6.36084
23.18	6.33387
23.19	6.31314
23.2	6.3786
23.21	6.33979
23.22	6.33847
23.23	6.33189
23.24	6.33485
23.25	6.37597
23.26	6.31084
23.27	6.34406
23.28	6.38288
23.29	6.37005
23.3	6.30656
23.31	6.27235
23.32	6.29933
23.33	6.30327
23.34	6.29472
23.35	6.32005
23.36	6.32137
23.37	6.38025
23.38	6.36939
23.39	6.26248
23.4	6.31577
23.41	6.27696
23.42	6.3286
23.43	6.33387
23.44	6.36939
23.45	6.33255
23.46	6.33485
23.47	6.33387
23.48	6.34077
23.49	6.37367
23.5	6.31183
23.51	6.34768
23.52	6.34472
23.53	6.33485
23.54	6.35722
23.55	6.32827
23.56	6.38157
23.57	6.3717
23.58	6.26808
23.59	6.36018
23.6	6.36413
23.61	6.34209
23.62	6.37038
23.63	6.34012
23.64	6.32202
23.65	6.3592
23.66	6.36545
23.67	6.36347
23.68	6.3365
23.69	6.32466
23.7	6.35953
23.71	6.33551
23.72	6.30722
23.73	6.32071
23.74	6.33124
23.75	6.33091
23.76	6.30064
23.77	6.30525
23.78	6.31577
23.79	6.29308
23.8	6.24867
23.81	6.30294
23.82	6.31939
23.83	6.28814
23.84	6.35492
23.85	6.36742
23.86	6.35788
23.87	6.36939
23.88	6.3013
23.89	6.324
23.9	6.28452
23.91	6.33058
23.92	6.35953
23.93	6.31281
23.94	6.33847
23.95	6.31643
23.96	6.26413
23.97	6.38485
23.98	6.37071
23.99	6.33814
24	6.35492
24.01	6.33156
24.02	6.32202
24.03	6.32795
24.04	6.34966
24.05	6.34012
24.06	6.31347
24.07	6.32893
24.08	6.36479
24.09	6.38288
24.1	6.31709
24.11	6.33485
24.12	6.32893
24.13	6.35953
24.14	6.34933
24.15	6.34242
24.16	6.32729
24.17	6.25229
24.18	6.30755
24.19	6.33913
24.2	6.33551
24.21	6.33321
24.22	6.30854
24.23	6.3365
24.24	6.38354
24.25	6.35722
24.26	6.31577
24.27	6.2615
24.28	6.30755
24.29	6.33255
24.3	6.33781
24.31	6.32005
24.32	6.3365
24.33	6.36183
24.34	6.37235
24.35	6.30426
24.36	6.33222
24.37	6.36676
24.38	6.36446
24.39	6.36545
24.4	6.34834
24.41	6.3411
24.42	6.36183
24.43	6.36051
24.44	6.30229
24.45	6.31347
24.46	6.27268
24.47	6.34801
24.48	6.31479
24.49	6.30262
24.5	6.32334
24.51	6.31577
24.52	6.29308
24.53	6.26808
24.54	6.3411
24.55	6.34867
24.56	6.33584
24.57	6.32531
24.58	6.3217
24.59	6.30689
24.6	6.30821
24.61	6.33321
24.62	6.28156
24.63	6.3717
24.64	6.30459
24.65	6.30229
24.66	6.31347
24.67	6.32827
24.68	6.30919
24.69	6.33091
24.7	6.35854
24.71	6.31972
24.72	6.30229
24.73	6.29012
24.74	6.31775
24.75	6.34077
24.76	6.37038
24.77	6.29308
24.78	6.33255
24.79	6.30656
24.8	6.30031
24.81	6.25196
24.82	6.29966
24.83	6.34472
24.84	6.29472
24.85	6.28781
24.86	6.3615
24.87	6.30788
24.88	6.31709
24.89	6.33683
24.9	6.31939
24.91	6.33222
24.92	6.35755
24.93	6.31051
24.94	6.33189
24.95	6.29702
24.96	6.37466
24.97	6.38157
24.98	6.3388
24.99	6.35953
25	6.31117
25.01	6.29209
25.02	6.32466
25.03	6.36874
25.04	6.34604
25.05	6.31347
25.06	6.34472
25.07	6.29538
25.08	6.29242
25.09	6.31314
25.1	6.31413
25.11	6.28847
25.12	6.29406
25.13	6.31972
25.14	6.32235
25.15	6.32926
25.16	6.32663
25.17	6.29571
25.18	6.28946
25.19	6.30591
25.2	6.33189
25.21	6.30426
25.22	6.27531
25.23	6.28617
25.24	6.33222
25.25	6.349
25.26	6.36216
25.27	6.28814
25.28	6.29571
25.29	6.24571
25.3	6.26939
25.31	6.34604
25.32	6.30031
25.33	6.28058
25.34	6.30097
25.35	6.34735
25.36	6.34045
25.37	6.3161
25.38	6.29933
25.39	6.34637
25.4	6.30196
25.41	6.3217
25.42	6.30393
25.43	6.30262
25.44	6.32235
25.45	6.30196
25.46	6.30426
25.47	6.32301
25.48	6.31709
25.49	6.30952
25.5	6.32104
25.51	6.28715
25.52	6.28419
25.53	6.29012
25.54	6.31248
25.55	6.26479
25.56	6.32005
25.57	6.30492
25.58	6.30558
25.59	6.28222
25.6	6.31347
25.61	6.31479
25.62	6.29406
25.63	6.28551
25.64	6.30393
25.65	6.29637
25.66	6.31314
25.67	6.31545
25.68	6.31314
25.69	6.28715
25.7	6.33979
25.71	6.30459
25.72	6.34012
25.73	6.30294
25.74	6.30294
25.75	6.32696
25.76	6.36512
25.77	6.35426
25.78	6.35591
25.79	6.28452
25.8	6.28814
25.81	6.29834
25.82	6.30952
25.83	6.25821
25.84	6.29275
25.85	6.33551
25.86	6.3513
25.87	6.33946
25.88	6.3263
25.89	6.30919
25.9	6.32498
25.91	6.27268
25.92	6.31413
25.93	6.30393
25.94	6.33913
25.95	6.3592
25.96	6.33091
25.97	6.32795
25.98	6.31018
25.99	6.32893
26	6.30558
26.01	6.30459
26.02	6.34176
26.03	6.39407
26.04	6.36117
26.05	6.33913
26.06	6.34933
26.07	6.32795
26.08	6.28485
26.09	6.32926
26.1	6.29341
26.11	6.28025
26.12	6.26906
26.13	6.31841
26.14	6.34439
26.15	6.30887
26.16	6.32367
26.17	6.27926
26.18	6.28781
26.19	6.324
26.2	6.27893
26.21	6.25755
26.22	6.31084
26.23	6.299
26.24	6.324
26.25	6.32301
26.26	6.28222
26.27	6.28387
26.28	6.28748
26.29	6.30163
26.3	6.31084
26.31	6.31873
26.32	6.31545
26.33	6.38782
26.34	6.31841
26.35	6.29176
26.36	6.28518
26.37	6.33321
26.38	6.34077
26.39	6.30262
26.4	6.27893
26.41	6.30755
26.42	6.33847
26.43	6.27959
26.44	6.28485
26.45	6.38354
26.46	6.3592
26.47	6.30952
26.48	6.31314
26.49	6.30064
26.5	6.31512
26.51	6.30854
26.52	6.33584
26.53	6.31841
26.54	6.32663
26.55	6.34801
26.56	6.31972
26.57	6.35558
26.58	6.33551
26.59	6.30229
26.6	6.30689
26.61	6.32137
26.62	6.33847
26.63	6.30426
26.64	6.28058
26.65	6.31183
26.66	6.27235
26.67	6.33124
26.68	6.33288
26.69	6.28617
26.7	6.35097
26.71	6.34768
26.72	6.29933
26.73	6.30426
26.74	6.26972
26.75	6.28222
26.76	6.28419
26.77	6.29571
26.78	6.3161
26.79	6.34505
26.8	6.31545
26.81	6.32926
26.82	6.30196
26.83	6.33025
26.84	6.32729
26.85	6.29077
26.86	6.24998
26.87	6.31018
26.88	6.32564
26.89	6.30294
26.9	6.32893
26.91	6.29472
26.92	6.31775
26.93	6.34341
26.94	6.35887
26.95	6.36512
26.96	6.299
26.97	6.29143
26.98	6.34505
26.99	6.35492
27	6.32071
27.01	6.32268
27.02	6.37696
27.03	6.30722
27.04	6.29439
27.05	6.30952
27.06	6.28617
27.07	6.31742
27.08	6.29735
27.09	6.29505
27.1	6.3638
27.11	6.29768
27.12	6.30031
27.13	6.37466
27.14	6.33584
27.15	6.2888
27.16	6.26906
27.17	6.28189
27.18	6.34472
27.19	6.35328
27.2	6.33354
27.21	6.29373
27.22	6.26248
27.23	6.28979
27.24	6.32597
27.25	6.34472
27.26	6.26511
27.27	6.28551
27.28	6.35196
27.29	6.34867
27.3	6.27104
27.31	6.32959
27.32	6.30788
27.33	6.30656
27.34	6.3036
27.35	6.35393
27.36	6.32301
27.37	6.27827
27.38	6.27762
27.39	6.33452
27.4	6.3036
27.41	6.31018
27.42	6.33617
27.43	6.31775
27.44	6.28387
27.45	6.29077
27.46	6.27762
27.47	6.29439
27.48	6.30262
27.49	6.32137
27.5	6.30755
27.51	6.2684
27.52	6.27696
27.53	6.23847
27.54	6.2684
27.55	6.29637
27.56	6.34406
27.57	6.30229
27.58	6.27893
27.59	6.28913
27.6	6.26742
27.61	6.30294
27.62	6.31347
27.63	6.34735
27.64	6.2809
27.65	6.32531
27.66	6.32926
27.67	6.32762
27.68	6.30985
27.69	6.28156
27.7	6.249
27.71	6.25722
27.72	6.26643
27.73	6.29373
27.74	6.31183
27.75	6.27367
27.76	6.30459
27.77	6.27465
27.78	6.28189
27.79	6.32696
27.8	6.36117
27.81	6.36183
27.82	6.324
27.83	6.27926
27.84	6.27827
27.85	6.32926
27.86	6.30689
27.87	6.32498
27.88	6.30327
27.89	6.37104
27.9	6.32005
27.91	6.26117
27.92	6.33058
27.93	6.33814
27.94	6.28485
27.95	6.30294
27.96	6.29209
27.97	6.26183
27.98	6.2786
27.99	6.31248
28	6.29966
28.01	6.29505
28.02	6.35031
28.03	6.32531
28.04	6.26117
28.05	6.29702
28.06	6.3217
28.07	6.31084
28.08	6.31248
28.09	6.31051
28.1	6.34242
28.11	6.36051
28.12	6.32367
28.13	6.31446
28.14	6.30163
28.15	6.29012
28.16	6.31051
28.17	6.31742
28.18	6.31347
28.19	6.29143
28.2	6.28913
28.21	6.3286
28.22	6.30755
28.23	6.3115
28.24	6.30919
28.25	6.28452
28.26	6.30196
28.27	6.30196
28.28	6.30821
28.29	6.28584
28.3	6.30196
28.31	6.34242
28.32	6.36314
28.33	6.36051
28.34	6.3388
28.35	6.31314
28.36	6.32367
28.37	6.2865
28.38	6.36545
28.39	6.28551
28.4	6.33518
28.41	6.3342
28.42	6.28288
28.43	6.3263
28.44	6.3388
28.45	6.29373
28.46	6.25854
28.47	6.32729
28.48	6.3388
28.49	6.34275
28.5	6.28551
28.51	6.27794
28.52	6.28321
28.53	6.28387
28.54	6.3217
28.55	6.34538
28.56	6.35163
28.57	6.29834
28.58	6.28321
28.59	6.3013
28.6	6.29669
28.61	6.29176
28.62	6.30097
28.63	6.27827
28.64	6.30689
28.65	6.27926
28.66	6.28288
28.67	6.32466
28.68	6.34242
28.69	6.26248
28.7	6.27893
28.71	6.30722
28.72	6.34143
28.73	6.3217
28.74	6.30294
28.75	6.31018
28.76	6.26808
28.77	6.28781
28.78	6.29702
28.79	6.29801
28.8	6.31117
28.81	6.3263
28.82	6.28485
28.83	6.33781
28.84	6.30656
28.85	6.35064
28.86	6.27696
28.87	6.29373
28.88	6.29077
28.89	6.31117
28.9	6.29275
28.91	6.28683
28.92	6.33946
28.93	6.35821
28.94	6.3138
28.95	6.30656
28.96	6.31413
28.97	6.30163
28.98	6.33814
28.99	6.31742
29	6.32893
29.01	6.27959
29.02	6.33124
29.03	6.28946
29.04	6.32498
29.05	6.30689
29.06	6.31446
29.07	6.30919
29.08	6.25393
29.09	6.27202
29.1	6.26314
29.11	6.30755
29.12	6.33222
29.13	6.31314
29.14	6.35295
29.15	6.33946
29.16	6.3013
29.17	6.31248
29.18	6.31413
29.19	6.29571
29.2	6.25919
29.21	6.25064
29.22	6.28189
29.23	6.2388
29.24	6.2888
29.25	6.27465
29.26	6.27663
29.27	6.29275
29.28	6.27564
29.29	6.24702
29.3	6.36117
29.31	6.30788
29.32	6.32235
29.33	6.29834
29.34	6.30821
29.35	6.2661
29.36	6.33551
29.37	6.29669
29.38	6.28123
29.39	6.30229
29.4	6.25656
29.41	6.35328
29.42	6.27663
29.43	6.27235
29.44	6.31413
29.45	6.299
29.46	6.27498
29.47	6.27136
29.48	6.27959
29.49	6.26347
29.5	6.30163
29.51	6.33814
29.52	6.33156
29.53	6.31512
29.54	6.29669
29.55	6.36314
29.56	6.36347
29.57	6.29571
29.58	6.32038
29.59	6.31117
29.6	6.36446
29.61	6.30262
29.62	6.26117
29.63	6.29406
29.64	6.33716
29.65	6.27334
29.66	6.33189
29.67	6.32696
29.68	6.33124
29.69	6.32301
29.7	6.34077
29.71	6.34242
29.72	6.30525
29.73	6.30294
29.74	6.31709
29.75	6.33321
29.76	6.30393
29.77	6.2865
29.78	6.34012
29.79	6.36249
29.8	6.32466
29.81	6.34637
29.82	6.30722
29.83	6.34966
29.84	6.35459
29.85	6.31676
29.86	6.31117
29.87	6.37663
29.88	6.27959
29.89	6.25952
29.9	6.33584
29.91	6.29571
29.92	6.3036
29.93	6.34538
29.94	6.32038
29.95	6.31742
29.96	6.30919
29.97	6.27005
29.98	6.27531
29.99	6.29143
30	6.31314
30.01	6.29439
30.02	6.30656
30.03	6.28551
30.04	6.35031
30.05	6.30064
30.06	6.26248
30.07	6.28913
30.08	6.31413
30.09	6.29571
30.1	6.29735
30.11	6.28189
30.12	6.31808
30.13	6.29439
30.14	6.31117
30.15	6.27893
30.16	6.274
30.17	6.29604
30.18	6.33387
30.19	6.2911
30.2	6.29669
30.21	6.27071
30.22	6.3342
30.23	6.32498
30.24	6.26972
30.25	6.32367
30.26	6.36281
30.27	6.30952
30.28	6.31643
30.29	6.29735
30.3	6.29077
30.31	6.30196
30.32	6.32202
30.33	6.27827
30.34	6.32433
30.35	6.29242
30.36	6.25327
30.37	6.29669
30.38	6.35624
30.39	6.31775
30.4	6.30064
30.41	6.31084
30.42	6.33518
30.43	6.32104
30.44	6.29406
30.45	6.30887
30.46	6.32992
30.47	6.31841
30.48	6.29505
30.49	6.33617
30.5	6.33255
30.51	6.28617
30.52	6.29341
30.53	6.28255
30.54	6.30262
30.55	6.32926
30.56	6.30788
30.57	6.31413
30.58	6.35558
30.59	6.29143
30.6	6.32104
30.61	6.28617
30.62	6.27038
30.63	6.31216
30.64	6.28518
30.65	6.3115
30.66	6.33716
30.67	6.31676
30.68	6.30064
30.69	6.32498
30.7	6.33979
30.71	6.33189
30.72	6.29669
30.73	6.32301
30.74	6.33584
30.75	6.27433
30.76	6.33683
30.77	6.28058
30.78	6.26511
30.79	6.35854
30.8	6.33058
30.81	6.28419
30.82	6.26051
30.83	6.29308
30.84	6.31808
30.85	6.33814
30.86	6.34604
30.87	6.32992
30.88	6.28387
30.89	6.30656
30.9	6.28123
30.91	6.2513
30.92	6.30689
30.93	6.29801
30.94	6.30459
30.95	6.29143
30.96	6.28946
30.97	6.2763
30.98	6.3013
30.99	6.26084
31	6.27762
31.01	6.299
31.02	6.27663
31.03	6.32762
31.04	6.32531
31.05	6.31873
31.06	6.32795
31.07	6.3217
31.08	6.3217
31.09	6.33749
31.1	6.32235
31.11	6.28814
31.12	6.32498
31.13	6.30854
31.14	6.29176
31.15	6.28025
31.16	6.33222
31.17	6.30064
31.18	6.28123
31.19	6.2888
31.2	6.29604
31.21	6.26643
31.22	6.28387
31.23	6.31084
31.24	6.33452
31.25	6.30196
31.26	6.30196
31.27	6.26051
31.28	6.29538
31.29	6.30393
31.3	6.29143
31.31	6.29176
31.32	6.31051
31.33	6.28156
31.34	6.30229
31.35	6.30887
31.36	6.29604
31.37	6.24406
31.38	6.29834
31.39	6.32202
31.4	6.31545
31.41	6.29143
31.42	6.28452
31.43	6.28847
31.44	6.26808
31.45	6.30525
31.46	6.31183
31.47	6.28387
31.48	6.34143
31.49	6.29439
31.5	6.29768
31.51	6.34538
31.52	6.29143
31.53	6.28518
31.54	6.25985
31.55	6.30031
31.56	6.33156
31.57	6.324
31.58	6.27334
31.59	6.2865
31.6	6.30459
31.61	6.32531
31.62	6.30623
31.63	6.29637
31.64	6.29735
31.65	6.28551
31.66	6.31709
31.67	6.27531
31.68	6.28452
31.69	6.28748
31.7	6.29637
31.71	6.324
31.72	6.31906
31.73	6.3161
31.74	6.30327
31.75	6.24505
31.76	6.29538
31.77	6.28814
31.78	6.3013
31.79	6.32531
31.8	6.29044
31.81	6.29538
31.82	6.30327
31.83	6.31183
31.84	6.31939
31.85	6.30821
31.86	6.27465
31.87	6.28354
31.88	6.26413
31.89	6.30492
31.9	6.2911
31.91	6.31479
31.92	6.28814
31.93	6.2786
31.94	6.25722
31.95	6.30952
31.96	6.33979
31.97	6.30492
31.98	6.26084
31.99	6.29505
32	6.26643
32.01	6.26413
32.02	6.30031
32.03	6.28551
32.04	6.31512
32.05	6.30426
32.06	6.29571
32.07	6.26084
32.08	6.27038
32.09	6.23452
32.1	6.30229
32.11	6.26215
32.12	6.27696
32.13	6.32137
32.14	6.3388
32.15	6.32663
32.16	6.31676
32.17	6.26084
32.18	6.2638
32.19	6.25327
32.2	6.31084
32.21	6.31018
32.22	6.28748
32.23	6.32268
32.24	6.34702
32.25	6.37104
32.26	6.30558
32.27	6.27268
32.28	6.32071
32.29	6.30656
32.3	6.29308
32.31	6.29308
32.32	6.28584
32.33	6.28913
32.34	6.24472
32.35	6.2684
32.36	6.299
32.37	6.299
32.38	6.29604
32.39	6.24702
32.4	6.29669
32.41	6.29834
32.42	6.22959
32.43	6.274
32.44	6.28781
32.45	6.27696
32.46	6.32235
32.47	6.31841
32.48	6.28123
32.49	6.34801
32.5	6.31808
32.51	6.23748
32.52	6.28518
32.53	6.23518
32.54	6.29341
32.55	6.25788
32.56	6.30459
32.57	6.28683
32.58	6.2809
32.59	6.28156
32.6	6.28781
32.61	6.30887
32.62	6.32038
32.63	6.31216
32.64	6.35262
32.65	6.31545
32.66	6.30163
32.67	6.28025
32.68	6.28156
32.69	6.29505
32.7	6.32301
32.71	6.3036
32.72	6.31742
32.73	6.30393
32.74	6.28354
32.75	6.32367
32.76	6.30722
32.77	6.299
32.78	6.32137
32.79	6.30623
32.8	6.26446
32.81	6.30689
32.82	6.29209
32.83	6.25426
32.84	6.28387
32.85	6.33124
32.86	6.31018
32.87	6.27926
32.88	6.25459
32.89	6.30262
32.9	6.24505
32.91	6.25854
32.92	6.27465
32.93	6.34012
32.94	6.29406
32.95	6.28715
32.96	6.32301
32.97	6.32466
32.98	6.28715
32.99	6.25031
33	6.28485
33.01	6.29275
33.02	6.29012
33.03	6.30393
33.04	6.30722
33.05	6.31972
33.06	6.22531
33.07	6.27729
33.08	6.30558
33.09	6.22959
33.1	6.2615
33.11	6.27729
33.12	6.30558
33.13	6.32038
33.14	6.34472
33.15	6.30196
33.16	6.30623
33.17	6.3217
33.18	6.30393
33.19	6.31347
33.2	6.30689
33.21	6.33387
33.22	6.27696
33.23	6.28156
33.24	6.27597
33.25	6.3138
33.26	6.27202
33.27	6.27169
33.28	6.32564
33.29	6.32334
33.3	6.31545
33.31	6.31676
33.32	6.26873
33.33	6.28156
33.34	6.31841
33.35	6.30591
33.36	6.29439
33.37	6.32564
33.38	6.33551
33.39	6.28617
33.4	6.35426
33.41	6.29669
33.42	6.30821
33.43	6.32137
33.44	6.29801
33.45	6.25327
33.46	6.27169
33.47	6.29998
33.48	6.27498
33.49	6.29834
33.5	6.29867
33.51	6.30689
33.52	6.29735
33.53	6.28946
33.54	6.27136
33.55	6.29143
33.56	6.26643
33.57	6.30163
33.58	6.31216
33.59	6.27433
33.6	6.25558
33.61	6.27268
33.62	6.3013
33.63	6.28683
33.64	6.30097
33.65	6.26808
33.66	6.29209
33.67	6.31906
33.68	6.31117
33.69	6.27992
33.7	6.25492
33.71	6.28354
33.72	6.35064
33.73	6.33683
33.74	6.28518
33.75	6.26413
33.76	6.31248
33.77	6.29604
33.78	6.28814
33.79	6.29669
33.8	6.26808
33.81	6.32071
33.82	6.28814
33.83	6.28156
33.84	6.299
33.85	6.3013
33.86	6.34933
33.87	6.37729
33.88	6.28485
33.89	6.31084
33.9	6.28321
33.91	6.27959
33.92	6.30097
33.93	6.30854
33.94	6.28452
33.95	6.30163
33.96	6.28321
33.97	6.29143
33.98	6.28025
33.99	6.25229
34	6.32367
34.01	6.2888
34.02	6.27531
34.03	6.324
34.04	6.25755
34.05	6.2763
34.06	6.34966
34.07	6.299
34.08	6.3115
34.09	6.30262
34.1	6.3115
34.11	6.29341
34.12	6.28156
34.13	6.28715
34.14	6.27038
34.15	6.34275
34.16	6.30327
34.17	6.31117
34.18	6.29702
34.19	6.30558
34.2	6.29702
34.21	6.30426
34.22	6.2786
34.23	6.27433
34.24	6.30229
34.25	6.30689
34.26	6.30755
34.27	6.28781
34.28	6.30294
34.29	6.33781
34.3	6.3661
34.31	6.27334
34.32	6.34406
34.33	6.29044
34.34	6.28025
34.35	6.29998
34.36	6.30788
34.37	6.27005
34.38	6.33321
34.39	6.31183
34.4	6.32301
34.41	6.32268
34.42	6.30196
34.43	6.26906
34.44	6.28419
34.45	6.25459
34.46	6.30064
34.47	6.31479
34.48	6.33255
34.49	6.31676
34.5	6.30163
34.51	6.29998
34.52	6.32071
34.53	6.3115
34.54	6.3161
34.55	6.30064
34.56	6.28452
34.57	6.27762
34.58	6.31906
34.59	6.30393
34.6	6.27498
34.61	6.27235
34.62	6.27827
34.63	6.31643
34.64	6.26544
34.65	6.22103
34.66	6.26446
34.67	6.27926
34.68	6.28123
34.69	6.31512
34.7	6.24801
34.71	6.27959
34.72	6.28058
34.73	6.30294
34.74	6.29341
34.75	6.28485
34.76	6.31479
34.77	6.32663
34.78	6.2638
34.79	6.24768
34.8	6.28814
34.81	6.28551
34.82	6.29242
34.83	6.33387
34.84	6.26676
34.85	6.32137
34.86	6.299
34.87	6.24867
34.88	6.26479
34.89	6.29143
34.9	6.2911
34.91	6.31051
34.92	6.299
34.93	6.29998
34.94	6.24143
34.95	6.25854
34.96	6.25064
34.97	6.23386
34.98	6.2786
34.99	6.28189
35	6.27597
35.01	6.28321
35.02	6.24275
35.03	6.26511
35.04	6.24604
35.05	6.30393
35.06	6.32433
35.07	6.32367
35.08	6.26709
35.09	6.24768
35.1	6.21149
35.11	6.27136
35.12	6.26972
35.13	6.28058
35.14	6.20656
35.15	6.24867
35.16	6.24505
35.17	6.27926
35.18	6.28979
35.19	6.2536
35.2	6.27729
35.21	6.30459
35.22	6.27334
35.23	6.30788
35.24	6.32367
35.25	6.29472
35.26	6.31117
35.27	6.30097
35.28	6.29867
35.29	6.25985
35.3	6.26906
35.31	6.27367
35.32	6.26511
35.33	6.2411
35.34	6.28979
35.35	6.27301
35.36	6.28288
35.37	6.29505
35.38	6.29012
35.39	6.27762
35.4	6.24044
35.41	6.2513
35.42	6.27334
35.43	6.26972
35.44	6.25788
35.45	6.31906
35.46	6.31347
35.47	6.2865
35.48	6.34702
35.49	6.31841
35.5	6.29735
35.51	6.33452
35.52	6.28321
35.53	6.32104
35.54	6.299
35.55	6.24768
35.56	6.29702
35.57	6.28715
35.58	6.2638
35.59	6.28683
35.6	6.26577
35.61	6.28814
35.62	6.29077
35.63	6.30788
35.64	6.33518
35.65	6.3286
35.66	6.27564
35.67	6.26347
35.68	6.25459
35.69	6.29571
35.7	6.29308
35.71	6.28979
35.72	6.31972
35.73	6.2559
35.74	6.26183
35.75	6.31018
35.76	6.28913
35.77	6.25393
35.78	6.27827
35.79	6.28584
35.8	6.26314
35.81	6.32762
35.82	6.28551
35.83	6.28551
35.84	6.23913
35.85	6.25854
35.86	6.25656
35.87	6.25656
35.88	6.27071
35.89	6.28419
35.9	6.25919
35.91	6.25426
35.92	6.2638
35.93	6.29933
35.94	6.25492
35.95	6.274
35.96	6.30985
35.97	6.26117
35.98	6.26544
35.99	6.25623
36	6.27762
36.01	6.26281
36.02	6.29242
36.03	6.28946
36.04	6.28189
36.05	6.32795
36.06	6.31314
36.07	6.29702
36.08	6.30525
36.09	6.35821
36.1	6.27696
36.11	6.21347
36.12	6.22597
36.13	6.28387
36.14	6.24998
36.15	6.30327
36.16	6.25064
36.17	6.25525
36.18	6.2911
36.19	6.32992
36.2	6.2865
36.21	6.28781
36.22	6.30163
36.23	6.26413
36.24	6.23452
36.25	6.24406
36.26	6.27498
36.27	6.31841
36.28	6.32663
36.29	6.24373
36.3	6.22531
36.31	6.2365
36.32	6.28123
36.33	6.32301
36.34	6.25229
36.35	6.26084
36.36	6.26643
36.37	6.29966
36.38	6.32564
36.39	6.30229
36.4	6.30755
36.41	6.28551
36.42	6.30492
36.43	6.27926
36.44	6.28255
36.45	6.28913
36.46	6.25854
36.47	6.28946
36.48	6.25327
36.49	6.27597
36.5	6.28419
36.51	6.29571
36.52	6.29604
36.53	6.30163
36.54	6.27992
36.55	6.22301
36.56	6.25525
36.57	6.26117
36.58	6.32104
36.59	6.2615
36.6	6.24209
36.61	6.26413
36.62	6.26939
36.63	6.27762
36.64	6.28156
36.65	6.28222
36.66	6.25097
36.67	6.23518
36.68	6.30097
36.69	6.28617
36.7	6.33518
36.71	6.27893
36.72	6.24373
36.73	6.28419
36.74	6.28617
36.75	6.29604
36.76	6.28452
36.77	6.35163
36.78	6.29998
36.79	6.27104
36.8	6.28617
36.81	6.26939
36.82	6.24373
36.83	6.2638
36.84	6.23584
36.85	6.26676
36.86	6.31873
36.87	6.27235
36.88	6.22992
36.89	6.24636
36.9	6.29242
36.91	6.27038
36.92	6.30558
36.93	6.27926
36.94	6.25886
36.95	6.26413
36.96	6.21906
36.97	6.2809
36.98	6.28255
36.99	6.30755
37	6.29801
37.01	6.29209
37.02	6.26544
37.03	6.24735
37.04	6.28387
37.05	6.29735
37.06	6.29735
37.07	6.30327
37.08	6.27959
37.09	6.29637
37.1	6.28354
37.11	6.28222
37.12	6.29604
37.13	6.2888
37.14	6.29669
37.15	6.28321
37.16	6.21149
37.17	6.25327
37.18	6.27301
37.19	6.28617
37.2	6.22235
37.21	6.24538
37.22	6.2911
37.23	6.3138
37.24	6.28847
37.25	6.28913
37.26	6.29505
37.27	6.3013
37.28	6.33452
37.29	6.25294
37.3	6.29275
37.31	6.324
37.32	6.33452
37.33	6.299
37.34	6.30656
37.35	6.32202
37.36	6.2661
37.37	6.31906
37.38	6.32104
37.39	6.27433
37.4	6.23748
37.41	6.28025
37.42	6.19669
37.43	6.28781
37.44	6.30426
37.45	6.28321
37.46	6.23781
37.47	6.24373
37.48	6.27169
37.49	6.27663
37.5	6.24801
37.51	6.3013
37.52	6.27202
37.53	6.25755
37.54	6.29209
37.55	6.2434
37.56	6.29472
37.57	6.28847
37.58	6.24505
37.59	6.27334
37.6	6.29867
37.61	6.29472
37.62	6.29308
37.63	6.27926
37.64	6.26281
37.65	6.27169
37.66	6.30262
37.67	6.29669
37.68	6.30591
37.69	6.31051
37.7	6.31939
37.71	6.26018
37.72	6.27104
37.73	6.27762
37.74	6.25656
37.75	6.32498
37.76	6.27597
37.77	6.24472
37.78	6.23288
37.79	6.29505
37.8	6.29867
37.81	6.28617
37.82	6.25294
37.83	6.23222
37.84	6.23979
37.85	6.29801
37.86	6.2809
37.87	6.3161
37.88	6.27071
37.89	6.2809
37.9	6.30196
37.91	6.30097
37.92	6.30492
37.93	6.29209
37.94	6.28222
37.95	6.31939
37.96	6.27136
37.97	6.30854
37.98	6.2513
37.99	6.27005
38	6.31742
38.01	6.29669
38.02	6.28683
38.03	6.26775
38.04	6.29242
38.05	6.29867
38.06	6.26413
38.07	6.28123
38.08	6.27465
38.09	6.31413
38.1	6.27729
38.11	6.26577
38.12	6.26446
38.13	6.27663
38.14	6.24538
38.15	6.24242
38.16	6.27926
38.17	6.249
38.18	6.28354
38.19	6.29768
38.2	6.27367
38.21	6.28617
38.22	6.30459
38.23	6.25623
38.24	6.27235
38.25	6.29077
38.26	6.28683
38.27	6.30492
38.28	6.22202
38.29	6.25163
38.3	6.29735
38.31	6.29768
38.32	6.32334
38.33	6.31117
38.34	6.27663
38.35	6.24867
38.36	6.28321
38.37	6.31216
38.38	6.29341
38.39	6.24998
38.4	6.22959
38.41	6.21347
38.42	6.29538
38.43	6.30229
38.44	6.27597
38.45	6.25229
38.46	6.28584
38.47	6.28452
38.48	6.27038
38.49	6.24702
38.5	6.26643
38.51	6.2763
38.52	6.30294
38.53	6.36446
38.54	6.28354
38.55	6.22301
38.56	6.27564
38.57	6.27268
38.58	6.30097
38.59	6.26413
38.6	6.299
38.61	6.30229
38.62	6.23057
38.63	6.25755
38.64	6.29604
38.65	6.25229
38.66	6.28156
38.67	6.29143
38.68	6.22728
38.69	6.27762
38.7	6.29637
38.71	6.27202
38.72	6.25919
38.73	6.28485
38.74	6.32663
38.75	6.27696
38.76	6.23255
38.77	6.27334
38.78	6.249
38.79	6.25196
38.8	6.22038
38.81	6.27301
38.82	6.25722
38.83	6.24801
38.84	6.27696
38.85	6.26051
38.86	6.30887
38.87	6.3013
38.88	6.25952
38.89	6.22301
38.9	6.28288
38.91	6.27531
38.92	6.25985
38.93	6.22893
38.94	6.25623
38.95	6.27498
38.96	6.28584
38.97	6.28683
38.98	6.27104
38.99	6.24077
39	6.26676
39.01	6.30262
39.02	6.28255
39.03	6.29242
39.04	6.30294
39.05	6.32531
39.06	6.24932
39.07	6.25492
39.08	6.29077
39.09	6.27433
39.1	6.29012
39.11	6.25163
39.12	6.25985
39.13	6.23946
39.14	6.28387
39.15	6.25229
39.16	6.27071
39.17	6.32893
39.18	6.26906
39.19	6.23551
39.2	6.24604
39.21	6.28715
39.22	6.32005
39.23	6.2536
39.24	6.26544
39.25	6.26117
39.26	6.2809
39.27	6.29867
39.28	6.29275
39.29	6.23255
39.3	6.24472
39.31	6.24801
39.32	6.25097
39.33	6.28617
39.34	6.25327
39.35	6.2411
39.36	6.224
39.37	6.25261
39.38	6.25821
39.39	6.28979
39.4	6.31051
39.41	6.28847
39.42	6.23584
39.43	6.27202
39.44	6.29801
39.45	6.29538
39.46	6.26511
39.47	6.26347
39.48	6.25525
39.49	6.2638
39.5	6.30294
39.51	6.29077
39.52	6.24505
39.53	6.27696
39.54	6.26479
39.55	6.28847
39.56	6.30591
39.57	6.27334
39.58	6.28617
39.59	6.27893
39.6	6.25722
39.61	6.26709
39.62	6.2411
39.63	6.27827
39.64	6.29275
39.65	6.30722
39.66	6.30985
39.67	6.27301
39.68	6.30952
39.69	6.30031
39.7	6.28748
39.71	6.33222
39.72	6.30097
39.73	6.2865
39.74	6.24307
39.75	6.29373
39.76	6.2763
39.77	6.29867
39.78	6.26117
39.79	6.2911
39.8	6.3013
39.81	6.27367
39.82	6.31545
39.83	6.28123
39.84	6.31183
39.85	6.24965
39.86	6.27268
39.87	6.28189
39.88	6.26117
39.89	6.24275
39.9	6.27071
39.91	6.24143
39.92	6.26248
39.93	6.27992
39.94	6.24604
39.95	6.26281
39.96	6.23353
39.97	6.29012
39.98	6.3013
39.99	6.23485
40	6.27663
40.01	6.3263
40.02	6.26577
40.03	6.2559
40.04	6.27038
40.05	6.28354
40.06	6.25689
40.07	6.26248
40.08	6.26314
40.09	6.27926
40.1	6.20196
40.11	6.25755
40.12	6.26084
40.13	6.24011
40.14	6.23386
40.15	6.27827
40.16	6.29933
40.17	6.30064
40.18	6.28748
40.19	6.23353
40.2	6.25886
40.21	6.31512
40.22	6.26215
40.23	6.25623
40.24	6.29176
40.25	6.25854
40.26	6.22498
40.27	6.27762
40.28	6.27071
40.29	6.26544
40.3	6.27564
40.31	6.24472
40.32	6.23189
40.33	6.27334
40.34	6.27367
40.35	6.28025
40.36	6.29472
40.37	6.27104
40.38	6.27663
40.39	6.27959
40.4	6.29472
40.41	6.28617
40.42	6.30558
40.43	6.27531
40.44	6.27663
40.45	6.25064
40.46	6.24834
40.47	6.27564
40.48	6.30821
40.49	6.31479
40.5	6.29505
40.51	6.28814
40.52	6.27169
40.53	6.28419
40.54	6.28288
40.55	6.26248
40.56	6.28748
40.57	6.25985
40.58	6.3365
40.59	6.31413
40.6	6.29702
40.61	6.23452
40.62	6.28354
40.63	6.33288
40.64	6.26972
40.65	6.27992
40.66	6.33781
40.67	6.31873
40.68	6.2638
40.69	6.25097
40.7	6.25426
40.71	6.25985
40.72	6.2763
40.73	6.28485
40.74	6.27926
40.75	6.28288
40.76	6.23288
40.77	6.26906
40.78	6.26084
40.79	6.24538
40.8	6.30689
40.81	6.24867
40.82	6.24044
40.83	6.25327
40.84	6.28748
40.85	6.30821
40.86	6.25623
40.87	6.26972
40.88	6.2763
40.89	6.23913
40.9	6.27696
40.91	6.29669
40.92	6.34768
40.93	6.31248
40.94	6.31742
40.95	6.29406
40.96	6.30229
40.97	6.30294
40.98	6.30558
40.99	6.24965
41	6.30689
41.01	6.24932
41.02	6.25854
41.03	6.27169
41.04	6.30591
41.05	6.24768
41.06	6.26643
41.07	6.26511
41.08	6.24604
41.09	6.31281
41.1	6.27597
41.11	6.19768
41.12	6.26511
41.13	6.28387
41.14	6.28748
41.15	6.30591
41.16	6.31446
41.17	6.30919
41.18	6.29242
41.19	6.2559
41.2	6.26248
41.21	6.24604
41.22	6.29702
41.23	6.2763
41.24	6.31183
41.25	6.25821
41.26	6.26709
41.27	6.24571
41.28	6.26117
41.29	6.25294
41.3	6.27531
41.31	6.27597
41.32	6.30327
41.33	6.30689
41.34	6.28419
41.35	6.27334
41.36	6.3013
41.37	6.29933
41.38	6.29604
41.39	6.26281
41.4	6.2184
41.41	6.25097
41.42	6.27367
41.43	6.28025
41.44	6.27663
41.45	6.2809
41.46	6.29505
41.47	6.27794
41.48	6.26248
41.49	6.26906
41.5	6.23617
41.51	6.23847
41.52	6.274
41.53	6.25196
41.54	6.29439
41.55	6.299
41.56	6.22761
41.57	6.22334
41.58	6.23617
41.59	6.22794
41.6	6.23518
41.61	6.21643
41.62	6.28156
41.63	6.31347
41.64	6.3036
41.65	6.29275
41.66	6.28222
41.67	6.26972
41.68	6.29933
41.69	6.30262
41.7	6.19143
41.71	6.23288
41.72	6.25393
41.73	6.23551
41.74	6.27762
41.75	6.24867
41.76	6.28551
41.77	6.22268
41.78	6.22761
41.79	6.25064
41.8	6.22498
41.81	6.28354
41.82	6.28847
41.83	6.32038
41.84	6.24373
41.85	6.28452
41.86	6.2388
41.87	6.24867
41.88	6.24998
41.89	6.2434
41.9	6.31413
41.91	6.24439
41.92	6.274
41.93	6.30327
41.94	6.27531
41.95	6.32498
41.96	6.27926
41.97	6.2661
41.98	6.28551
41.99	6.25886
42	6.2559
42.01	6.28222
42.02	6.30426
42.03	6.27038
42.04	6.28748
42.05	6.27729
42.06	6.28058
42.07	6.24801
42.08	6.30952
42.09	6.26117
42.1	6.26117
42.11	6.24143
42.12	6.2388
42.13	6.26314
42.14	6.28222
42.15	6.23913
42.16	6.2388
42.17	6.28584
42.18	6.26051
42.19	6.30854
42.2	6.29571
42.21	6.29406
42.22	6.23288
42.23	6.29604
42.24	6.26511
42.25	6.29308
42.26	6.32531
42.27	6.31676
42.28	6.27235
42.29	6.28025
42.3	6.27663
42.31	6.25525
42.32	6.28321
42.33	6.31413
42.34	6.28123
42.35	6.27301
42.36	6.29933
42.37	6.28058
42.38	6.28025
42.39	6.25558
42.4	6.26676
42.41	6.28025
42.42	6.30525
42.43	6.22728
42.44	6.27169
42.45	6.24538
42.46	6.24406
42.47	6.26808
42.48	6.27005
42.49	6.26676
42.5	6.23518
42.51	6.26544
42.52	6.28025
42.53	6.28222
42.54	6.28058
42.55	6.31446
42.56	6.27202
42.57	6.29735
42.58	6.32531
42.59	6.29176
42.6	6.26215
42.61	6.23814
42.62	6.23781
42.63	6.27334
42.64	6.23518
42.65	6.28518
42.66	6.31873
42.67	6.26051
42.68	6.24143
42.69	6.274
42.7	6.3013
42.71	6.25985
42.72	6.24768
42.73	6.25031
42.74	6.24768
42.75	6.25196
42.76	6.22071
42.77	6.2638
42.78	6.25919
42.79	6.2365
42.8	6.24604
42.81	6.24209
42.82	6.30755
42.83	6.28683
42.84	6.24242
42.85	6.26281
42.86	6.34077
42.87	6.2865
42.88	6.30788
42.89	6.23288
42.9	6.23386
42.91	6.23551
42.92	6.26117
42.93	6.28058
42.94	6.29669
42.95	6.24571
42.96	6.25327
42.97	6.2888
42.98	6.28387
42.99	6.29669
43	6.29012
43.01	6.299
43.02	6.33749
43.03	6.30821
43.04	6.26248
43.05	6.25492
43.06	6.26051
43.07	6.27235
43.08	6.30854
43.09	6.21939
43.1	6.22169
43.11	6.25558
43.12	6.27729
43.13	6.31281
43.14	6.24439
43.15	6.26183
43.16	6.30327
43.17	6.24044
43.18	6.24834
43.19	6.22169
43.2	6.21413
43.21	6.2615
43.22	6.26775
43.23	6.28683
43.24	6.31281
43.25	6.29834
43.26	6.27926
43.27	6.31347
43.28	6.29176
43.29	6.22235
43.3	6.25985
43.31	6.31742
43.32	6.28419
43.33	6.30525
43.34	6.29669
43.35	6.27597
43.36	6.28748
43.37	6.34045
43.38	6.29768
43.39	6.23222
43.4	6.20853
43.41	6.18288
43.42	6.22761
43.43	6.2434
43.44	6.32795
43.45	6.30492
43.46	6.26183
43.47	6.26413
43.48	6.25755
43.49	6.28814
43.5	6.29373
43.51	6.299
43.52	6.20952
43.53	6.25854
43.54	6.27433
43.55	6.23781
43.56	6.2638
43.57	6.3161
43.58	6.29669
43.59	6.24932
43.6	6.30755
43.61	6.31347
43.62	6.30097
43.63	6.26084
43.64	6.25623
43.65	6.26281
43.66	6.31216
43.67	6.28683
43.68	6.27136
43.69	6.21775
43.7	6.28156
43.71	6.27301
43.72	6.27433
43.73	6.25229
43.74	6.2411
43.75	6.23551
43.76	6.25722
43.77	6.23353
43.78	6.22663
43.79	6.26018
43.8	6.25886
43.81	6.274
43.82	6.31676
43.83	6.29341
43.84	6.29242
43.85	6.26808
43.86	6.23814
43.87	6.23452
43.88	6.27762
43.89	6.31281
43.9	6.26676
43.91	6.25755
43.92	6.26446
43.93	6.32827
43.94	6.27794
43.95	6.2536
43.96	6.26511
43.97	6.27696
43.98	6.21873
43.99	6.28222
44	6.2684
44.01	6.26676
44.02	6.29966
44.03	6.33288
44.04	6.32301
44.05	6.27926
44.06	6.29505
44.07	6.249
44.08	6.28452
44.09	6.31512
44.1	6.23913
44.11	6.27301
44.12	6.24275
44.13	6.25952
44.14	6.29933
44.15	6.29933
44.16	6.30294
44.17	6.28255
44.18	6.22071
44.19	6.21939
44.2	6.27531
44.21	6.25689
44.22	6.29933
44.23	6.28058
44.24	6.25689
44.25	6.27827
44.26	6.32334
44.27	6.28156
44.28	6.25064
44.29	6.3036
44.3	6.31183
44.31	6.24538
44.32	6.25229
44.33	6.24209
44.34	6.24505
44.35	6.23123
44.36	6.26643
44.37	6.27367
44.38	6.25689
44.39	6.29439
44.4	6.25755
44.41	6.2615
44.42	6.27071
44.43	6.29966
44.44	6.24505
44.45	6.25031
44.46	6.27794
44.47	6.2388
44.48	6.26314
44.49	6.23715
44.5	6.26051
44.51	6.27334
44.52	6.2365
44.53	6.27301
44.54	6.25854
44.55	6.28123
44.56	6.23419
44.57	6.21939
44.58	6.26544
44.59	6.2411
44.6	6.23715
44.61	6.27071
44.62	6.22728
44.63	6.25426
44.64	6.23682
44.65	6.28979
44.66	6.27005
44.67	6.30558
44.68	6.29176
44.69	6.26544
44.7	6.22498
44.71	6.26808
44.72	6.27235
44.73	6.25821
44.74	6.29209
44.75	6.28354
44.76	6.25229
44.77	6.24998
44.78	6.26215
44.79	6.2559
44.8	6.28814
44.81	6.27827
44.82	6.22926
44.83	6.25261
44.84	6.25525
44.85	6.26051
44.86	6.22301
44.87	6.24669
44.88	6.24307
44.89	6.28584
44.9	6.29472
44.91	6.29538
44.92	6.26446
44.93	6.249
44.94	6.23518
44.95	6.26314
44.96	6.27202
44.97	6.27564
44.98	6.29341
44.99	6.26215
45	6.23321
45.01	6.25097
45.02	6.23814
45.03	6.24209
45.04	6.30097
45.05	6.28518
45.06	6.23025
45.07	6.29341
45.08	6.28715
45.09	6.30985
45.1	6.28321
45.11	6.28419
45.12	6.28288
45.13	6.28387
45.14	6.30163
45.15	6.299
45.16	6.26939
45.17	6.24768
45.18	6.26643
45.19	6.25031
45.2	6.27169
45.21	6.28518
45.22	6.26051
45.23	6.26183
45.24	6.23386
45.25	6.23617
45.26	6.24242
45.27	6.27696
45.28	6.31314
45.29	6.25821
45.3	6.29176
45.31	6.28189
45.32	6.249
45.33	6.23485
45.34	6.23913
45.35	6.27663
45.36	6.2411
45.37	6.27531
45.38	6.27663
45.39	6.28748
45.4	6.27433
45.41	6.29341
45.42	6.35196
45.43	6.23682
45.44	6.29275
45.45	6.2786
45.46	6.23913
45.47	6.24735
45.48	6.24143
45.49	6.26972
45.5	6.27794
45.51	6.20064
45.52	6.2388
45.53	6.26939
45.54	6.22597
45.55	6.25623
45.56	6.28387
45.57	6.27729
45.58	6.26775
45.59	6.22268
45.6	6.26051
45.61	6.24932
45.62	6.24307
45.63	6.28288
45.64	6.27597
45.65	6.27794
45.66	6.21807
45.67	6.24176
45.68	6.28156
45.69	6.2888
45.7	6.25985
45.71	6.25031
45.72	6.23025
45.73	6.25689
45.74	6.24044
45.75	6.23386
45.76	6.23288
45.77	6.26215
45.78	6.29834
45.79	6.29406
45.8	6.25492
45.81	6.22071
45.82	6.26314
45.83	6.29669
45.84	6.24307
45.85	6.25525
45.86	6.25755
45.87	6.2388
45.88	6.26577
45.89	6.30525
45.9	6.27663
45.91	6.25656
45.92	6.22893
45.93	6.25919
45.94	6.26742
45.95	6.28452
45.96	6.25558
45.97	6.28683
45.98	6.27104
45.99	6.2536
46	6.2684
46.01	6.24275
46.02	6.29012
46.03	6.29373
46.04	6.29176
46.05	6.2434
46.06	6.26314
46.07	6.27235
46.08	6.25327
46.09	6.25623
46.1	6.26084
46.11	6.2161
46.12	6.26544
46.13	6.26314
46.14	6.21577
46.15	6.24538
46.16	6.22564
46.17	6.21709
46.18	6.29538
46.19	6.26281
46.2	6.22334
46.21	6.20228
46.22	6.24768
46.23	6.20952
46.24	6.22432
46.25	6.28781
46.26	6.27696
46.27	6.27498
46.28	6.27038
46.29	6.2786
46.3	6.25525
46.31	6.26281
46.32	6.26972
46.33	6.2786
46.34	6.19932
46.35	6.27564
46.36	6.26544
46.37	6.18419
46.38	6.22959
46.39	6.24077
46.4	6.29801
46.41	6.26709
46.42	6.24209
46.43	6.30821
46.44	6.2638
46.45	6.2559
46.46	6.22926
46.47	6.2536
46.48	6.28189
46.49	6.24998
46.5	6.28419
46.51	6.30887
46.52	6.28354
46.53	6.25755
46.54	6.18584
46.55	6.22531
46.56	6.23419
46.57	6.2865
46.58	6.28452
46.59	6.29176
46.6	6.21413
46.61	6.28058
46.62	6.23057
46.63	6.24406
46.64	6.25722
46.65	6.28452
46.66	6.23288
46.67	6.20557
46.68	6.25294
46.69	6.26018
46.7	6.24209
46.71	6.27827
46.72	6.30919
46.73	6.26775
46.74	6.26281
46.75	6.26018
46.76	6.29966
46.77	6.22202
46.78	6.29143
46.79	6.2888
46.8	6.2365
46.81	6.23781
46.82	6.24011
46.83	6.25097
46.84	6.28222
46.85	6.28584
46.86	6.29801
46.87	6.28025
46.88	6.25327
46.89	6.29275
46.9	6.25459
46.91	6.25656
46.92	6.32597
46.93	6.26939
46.94	6.21051
46.95	6.20163
46.96	6.19899
46.97	6.22761
46.98	6.26577
46.99	6.27794
47	6.26939
47.01	6.33946
47.02	6.28979
47.03	6.27202
47.04	6.24505
47.05	6.23353
47.06	6.21215
47.07	6.25097
47.08	6.32893
47.09	6.27235
47.1	6.23222
47.11	6.27071
47.12	6.28156
47.13	6.20985
47.14	6.25623
47.15	6.24209
47.16	6.24011
47.17	6.25261
47.18	6.22169
47.19	6.3115
47.2	6.28189
47.21	6.24801
47.22	6.22071
47.23	6.26511
47.24	6.23584
47.25	6.24604
47.26	6.24538
47.27	6.25525
47.28	6.24998
47.29	6.25426
47.3	6.20557
47.31	6.20459
47.32	6.22202
47.33	6.25722
47.34	6.27136
47.35	6.29209
47.36	6.2434
47.37	6.2434
47.38	6.21084
47.39	6.26544
47.4	6.24077
47.41	6.27564
47.42	6.24768
47.43	6.26117
47.44	6.24275
47.45	6.28715
47.46	6.27729
47.47	6.25393
47.48	6.27531
47.49	6.27794
47.5	6.274
47.51	6.28288
47.52	6.31314
47.53	6.30294
47.54	6.2615
47.55	6.23222
47.56	6.25755
47.57	6.2865
47.58	6.24505
47.59	6.25821
47.6	6.22071
47.61	6.20853
47.62	6.28683
47.63	6.28387
47.64	6.24669
47.65	6.26446
47.66	6.24998
47.67	6.29604
47.68	6.29406
47.69	6.2559
47.7	6.24735
47.71	6.29176
47.72	6.26544
47.73	6.2638
47.74	6.25854
47.75	6.30525
47.76	6.30525
47.77	6.28255
47.78	6.26511
47.79	6.2513
47.8	6.28156
47.81	6.30919
47.82	6.25755
47.83	6.24998
47.84	6.30525
47.85	6.24669
47.86	6.26939
47.87	6.24242
47.88	6.29341
47.89	6.29044
47.9	6.29176
47.91	6.26314
47.92	6.27926
47.93	6.3115
47.94	6.25985
47.95	6.27005
47.96	6.2309
47.97	6.20952
47.98	6.23288
47.99	6.2513
48	6.27959
48.01	6.26906
48.02	6.27433
48.03	6.23222
48.04	6.24636
48.05	6.29637
48.06	6.25261
48.07	6.24209
48.08	6.23814
48.09	6.21544
48.1	6.30919
48.11	6.27071
48.12	6.2638
48.13	6.25294
48.14	6.27005
48.15	6.27235
48.16	6.24209
48.17	6.26676
48.18	6.26511
48.19	6.29044
48.2	6.20788
48.21	6.22564
48.22	6.23682
48.23	6.24702
48.24	6.27104
48.25	6.28946
48.26	6.24801
48.27	6.274
48.28	6.274
48.29	6.22005
48.3	6.26051
48.31	6.34999
48.32	6.24011
48.33	6.2684
48.34	6.27005
48.35	6.25261
48.36	6.23321
48.37	6.25525
48.38	6.29966
48.39	6.29373
48.4	6.29209
48.41	6.27498
48.42	6.28222
48.43	6.26084
48.44	6.24834
48.45	6.29012
48.46	6.2763
48.47	6.2638
48.48	6.27762
48.49	6.2786
48.5	6.29044
48.51	6.26281
48.52	6.32071
48.53	6.299
48.54	6.25656
48.55	6.26183
48.56	6.33551
48.57	6.27301
48.58	6.25327
48.59	6.27992
48.6	6.21478
48.61	6.21117
48.62	6.2309
48.63	6.24571
48.64	6.25722
48.65	6.21018
48.66	6.25459
48.67	6.24538
48.68	6.28946
48.69	6.24735
48.7	6.24538
48.71	6.25196
48.72	6.25031
48.73	6.2888
48.74	6.29966
48.75	6.27268
48.76	6.25985
48.77	6.21347
48.78	6.21742
48.79	6.27729
48.8	6.22564
48.81	6.22367
48.82	6.27235
48.83	6.27794
48.84	6.26446
48.85	6.26051
48.86	6.25097
48.87	6.26742
48.88	6.21215
48.89	6.27005
48.9	6.31742
48.91	6.2911
48.92	6.24867
48.93	6.25788
48.94	6.28518
48.95	6.22696
48.96	6.21413
48.97	6.2309
48.98	6.26577
48.99	6.26544
49	6.26248
49.01	6.31018
49.02	6.26808
49.03	6.24604
49.04	6.22761
49.05	6.26808
49.06	6.24801
49.07	6.24077
49.08	6.28321
49.09	6.24472
49.1	6.25656
49.11	6.27005
49.12	6.23452
49.13	6.24604
49.14	6.24571
49.15	6.2809
49.16	6.33452
49.17	6.30952
49.18	6.21117
49.19	6.25952
49.2	6.2865
49.21	6.23847
49.22	6.25919
49.23	6.249
49.24	6.20327
49.25	6.20788
49.26	6.26413
49.27	6.27005
49.28	6.24505
49.29	6.27334
49.3	6.27169
49.31	6.24867
49.32	6.23551
49.33	6.31183
49.34	6.224
49.35	6.24505
49.36	6.23979
49.37	6.28156
49.38	6.29439
49.39	6.27827
49.4	6.24275
49.41	6.27926
49.42	6.27926
49.43	6.28485
49.44	6.27564
49.45	6.27235
49.46	6.26347
49.47	6.2888
49.48	6.29966
49.49	6.27992
49.5	6.2388
49.51	6.21446
49.52	6.27334
49.53	6.28683
49.54	6.21511
49.55	6.24275
49.56	6.25459
49.57	6.24669
49.58	6.24143
49.59	6.26479
49.6	6.27926
49.61	6.2559
49.62	6.24472
49.63	6.25261
49.64	6.27104
49.65	6.29966
49.66	6.28584
49.67	6.26446
49.68	6.22202
49.69	6.29242
49.7	6.224
49.71	6.25755
49.72	6.29077
49.73	6.28617
49.74	6.25261
49.75	6.28123
49.76	6.30985
49.77	6.25525
49.78	6.25459
49.79	6.19505
49.8	6.20952
49.81	6.27071
49.82	6.24604
49.83	6.25031
49.84	6.33255
49.85	6.2684
49.86	6.26643
49.87	6.26413
49.88	6.25985
49.89	6.2411
49.9	6.28748
49.91	6.23913
49.92	6.28156
49.93	6.27136
49.94	6.27202
49.95	6.28781
49.96	6.22926
49.97	6.28847
49.98	6.26906
49.99	6.26215
50	6.26215
