"BIO-KINE ASCII FILE"
"_COMMENT"	"MOS-500 Spectrometer"
"_COMMENT"	"Kinetics measurement"
"_COMMENT"	"Y Unit : Volt,  X Unit : s"
"_COMMENT"	"Excitation wavelength : 380 nm"
"_COMMENT"	"Fentes bandwidth =  1 nm"
"_COMMENT"	"HV= 1000V"
"_COMMENT"	"Timebase  1 =  .01 s   5001 pts"
"_SFM"	"SFM-400 /S  Advanced mode"
"_SFM"	"Ratio : S1: 2.5, S2: 0, S3: 0, S4: 1"
"_SFM"	"Content : S1: , S2: , S3: , S4:"
"_SFM"	"Concentration : S1: , S2: , S3: , S4:"
"_SFM"	"Total volume : 209 µl  Flow : 3.5 mL/s"
"_SFM"	"Acquisition start :  10 ms before stop"
"_SFM"	"cuve=FC-15, s1=10 ml , s2=10 ml , s3=10 ml , s4=1.9 ml"
"_UNITX"	"s"
"_UNITY"	"Volt"
"_DELTAX"	0
"_DATA"
1e-300	7.03191
0.01	7.42436
0.02	7.65726
0.03	7.82173
0.04	7.83785
0.05	7.85759
0.06	7.88687
0.07	7.94641
0.08	8.02437
0.09	7.99773
0.1	8.0224
0.11	8.06319
0.12	7.96647
0.13	7.97898
0.14	7.91582
0.15	7.93226
0.16	8.04411
0.17	7.98654
0.18	7.95562
0.19	7.95694
0.2	8.03654
0.21	8.01352
0.22	7.99674
0.23	7.99246
0.24	8.02437
0.25	8.04049
0.26	7.97963
0.27	7.98095
0.28	7.98062
0.29	7.96944
0.3	7.95266
0.31	7.98851
0.32	7.98983
0.33	7.9293
0.34	7.91286
0.35	7.94641
0.36	7.99509
0.37	7.9918
0.38	7.95167
0.39	7.91154
0.4	7.95036
0.41	7.94213
0.42	7.95397
0.43	7.95858
0.44	7.95266
0.45	7.99444
0.46	7.9349
0.47	7.90628
0.48	7.93917
0.49	7.9168
0.5	7.92766
0.51	7.90628
0.52	7.9043
0.53	7.92272
0.54	7.90562
0.55	7.90595
0.56	7.87272
0.57	7.89476
0.58	7.92371
0.59	7.90957
0.6	7.89082
0.61	7.90562
0.62	7.84213
0.63	7.89575
0.64	7.89542
0.65	7.85496
0.66	7.88424
0.67	7.85002
0.68	7.82305
0.69	7.87338
0.7	7.90463
0.71	7.87963
0.72	7.85233
0.73	7.86943
0.74	7.89345
0.75	7.8645
0.76	7.8872
0.77	7.75858
0.78	7.81943
0.79	7.83687
0.8	7.82206
0.81	7.85331
0.82	7.84706
0.83	7.89772
0.84	7.81154
0.85	7.75496
0.86	7.8145
0.87	7.82437
0.88	7.82535
0.89	7.80101
0.9	7.88193
0.91	7.84476
0.92	7.777
0.93	7.78029
0.94	7.7668
0.95	7.82733
0.96	7.7645
0.97	7.77305
0.98	7.79246
0.99	7.7339
1	7.76483
1.01	7.74739
1.02	7.72403
1.03	7.81581
1.04	7.78687
1.05	7.75759
1.06	7.75858
1.07	7.81022
1.08	7.78127
1.09	7.80134
1.1	7.78785
1.11	7.74279
1.12	7.71219
1.13	7.75463
1.14	7.71055
1.15	7.72469
1.16	7.73917
1.17	7.68588
1.18	7.71811
1.19	7.72075
1.2	7.71844
1.21	7.72042
1.22	7.74114
1.23	7.64114
1.24	7.73752
1.25	7.67305
1.26	7.65166
1.27	7.70956
1.28	7.61712
1.29	7.64903
1.3	7.67305
1.31	7.67338
1.32	7.67469
1.33	7.727
1.34	7.7168
1.35	7.65627
1.36	7.62239
1.37	7.68028
1.38	7.68522
1.39	7.67272
1.4	7.67239
1.41	7.68588
1.42	7.69936
1.43	7.6589
1.44	7.69542
1.45	7.66647
1.46	7.66252
1.47	7.64245
1.48	7.62765
1.49	7.63719
1.5	7.6089
1.51	7.58785
1.52	7.60035
1.53	7.63555
1.54	7.63226
1.55	7.62305
1.56	7.60068
1.57	7.63916
1.58	7.62206
1.59	7.60166
1.6	7.58291
1.61	7.62897
1.62	7.61383
1.63	7.59377
1.64	7.58752
1.65	7.59607
1.66	7.57732
1.67	7.576
1.68	7.49508
1.69	7.54245
1.7	7.52633
1.71	7.53752
1.72	7.53324
1.73	7.56087
1.74	7.53554
1.75	7.52666
1.76	7.54837
1.77	7.56614
1.78	7.49969
1.79	7.48883
1.8	7.48587
1.81	7.5362
1.82	7.49377
1.83	7.53752
1.84	7.50331
1.85	7.51219
1.86	7.55528
1.87	7.50627
1.88	7.52765
1.89	7.53554
1.9	7.49706
1.91	7.46745
1.92	7.45166
1.93	7.48225
1.94	7.51712
1.95	7.47074
1.96	7.48752
1.97	7.41547
1.98	7.45396
1.99	7.46153
2	7.43455
2.01	7.40593
2.02	7.43686
2.03	7.48883
2.04	7.47271
2.05	7.451
2.06	7.47863
2.07	7.48784
2.08	7.45824
2.09	7.43784
2.1	7.47436
2.11	7.45001
2.12	7.44508
2.13	7.42962
2.14	7.41778
2.15	7.41613
2.16	7.44015
2.17	7.45429
2.18	7.44048
2.19	7.42008
2.2	7.40495
2.21	7.45429
2.22	7.42205
2.23	7.401
2.24	7.39278
2.25	7.43587
2.26	7.43357
2.27	7.42304
2.28	7.41054
2.29	7.42666
2.3	7.34047
2.31	7.37337
2.32	7.39409
2.33	7.39968
2.34	7.36482
2.35	7.40528
2.36	7.37139
2.37	7.3385
2.38	7.35067
2.39	7.41613
2.4	7.43126
2.41	7.39311
2.42	7.38751
2.43	7.32402
2.44	7.27731
2.45	7.32896
2.46	7.36745
2.47	7.34146
2.48	7.3362
2.49	7.27666
2.5	7.33488
2.51	7.32435
2.52	7.36449
2.53	7.35593
2.54	7.31218
2.55	7.34014
2.56	7.32731
2.57	7.31514
2.58	7.28488
2.59	7.29508
2.6	7.27073
2.61	7.35166
2.62	7.33587
2.63	7.33587
2.64	7.34672
2.65	7.33159
2.66	7.23126
2.67	7.24869
2.68	7.27698
2.69	7.30725
2.7	7.33718
2.71	7.27633
2.72	7.28554
2.73	7.26415
2.74	7.31909
2.75	7.27633
2.76	7.27896
2.77	7.27962
2.78	7.29475
2.79	7.28916
2.8	7.26942
2.81	7.24738
2.82	7.21152
2.83	7.27271
2.84	7.22764
2.85	7.24771
2.86	7.22764
2.87	7.25593
2.88	7.28422
2.89	7.28323
2.9	7.24738
2.91	7.30396
2.92	7.27337
2.93	7.28619
2.94	7.25133
2.95	7.24113
2.96	7.23948
2.97	7.24606
2.98	7.18356
2.99	7.14014
3	7.20856
3.01	7.23455
3.02	7.2385
3.03	7.18652
3.04	7.1954
3.05	7.19113
3.06	7.18389
3.07	7.22172
3.08	7.18389
3.09	7.17698
3.1	7.21975
3.11	7.20428
3.12	7.19442
3.13	7.17928
3.14	7.1352
3.15	7.17238
3.16	7.17139
3.17	7.14409
3.18	7.15494
3.19	7.1704
3.2	7.1783
3.21	7.16251
3.22	7.18586
3.23	7.21514
3.24	7.17238
3.25	7.15297
3.26	7.1783
3.27	7.14014
3.28	7.11645
3.29	7.09507
3.3	7.08191
3.31	7.09145
3.32	7.09244
3.33	7.13619
3.34	7.19606
3.35	7.10132
3.36	7.12205
3.37	7.05856
3.38	7.12073
3.39	7.10165
3.4	7.11909
3.41	7.11974
3.42	7.1533
3.43	7.14211
3.44	7.06843
3.45	7.11086
3.46	7.10428
3.47	7.12928
3.48	7.16481
3.49	7.12205
3.5	7.08718
3.51	7.10428
3.52	7.12698
3.53	7.12534
3.54	7.08718
3.55	7.10987
3.56	7.0931
3.57	7.0852
3.58	7.05889
3.59	7.10132
3.6	7.1181
3.61	7.0704
3.62	7.07139
3.63	7.08422
3.64	7.06908
3.65	7.01645
3.66	7.01086
3.67	7.04803
3.68	7.0227
3.69	7.07731
3.7	7.05724
3.71	7.07402
3.72	7.00921
3.73	7.00625
3.74	7.02369
3.75	7.05757
3.76	7.03718
3.77	7.04408
3.78	6.97796
3.79	7.05297
3.8	6.99079
3.81	7.00099
3.82	7.05033
3.83	7.02698
3.84	7.02961
3.85	7.04573
3.86	7.06612
3.87	7.03981
3.88	6.9931
3.89	6.99441
3.9	6.98158
3.91	7.02632
3.92	7.01645
3.93	7.03849
3.94	7.00691
3.95	7.02007
3.96	7.00461
3.97	7.01777
3.98	7.02665
3.99	6.98981
4	7.03849
4.01	7.05297
4.02	6.99836
4.03	6.92763
4.04	6.92171
4.05	6.97402
4.06	6.99638
4.07	6.9648
4.08	6.96809
4.09	6.9352
4.1	7.00296
4.11	6.96875
4.12	6.94244
4.13	7.00527
4.14	6.97237
4.15	6.94046
4.16	6.99112
4.17	6.97829
4.18	6.95099
4.19	6.97796
4.2	6.95724
4.21	6.94375
4.22	6.95921
4.23	6.92928
4.24	6.9352
4.25	6.90559
4.26	6.94375
4.27	6.96415
4.28	6.9398
4.29	6.9352
4.3	6.91151
4.31	6.93849
4.32	6.91184
4.33	6.91974
4.34	6.94869
4.35	6.95132
4.36	6.95066
4.37	6.89441
4.38	6.89572
4.39	6.88882
4.4	6.89046
4.41	6.87566
4.42	6.86908
4.43	6.86085
4.44	6.91744
4.45	6.92105
4.46	6.88289
4.47	6.93092
4.48	6.93191
4.49	6.86842
4.5	6.89737
4.51	6.93158
4.52	6.88257
4.53	6.9
4.54	6.86941
4.55	6.91151
4.56	6.85395
4.57	6.86612
4.58	6.89868
4.59	6.92763
4.6	6.87697
4.61	6.86217
4.62	6.92763
4.63	6.84506
4.64	6.8727
4.65	6.85296
4.66	6.87796
4.67	6.89342
4.68	6.86743
4.69	6.8602
4.7	6.88684
4.71	6.83256
4.72	6.83618
4.73	6.82829
4.74	6.86842
4.75	6.88454
4.76	6.83881
4.77	6.86414
4.78	6.85296
4.79	6.85493
4.8	6.8523
4.81	6.83191
4.82	6.87336
4.83	6.83651
4.84	6.84145
4.85	6.85197
4.86	6.79539
4.87	6.7296
4.88	6.82664
4.89	6.79145
4.9	6.82763
4.91	6.83026
4.92	6.80625
4.93	6.8
4.94	6.8375
4.95	6.83224
4.96	6.77862
4.97	6.80691
4.98	6.82302
4.99	6.82533
5	6.79375
5.01	6.79375
5.02	6.78585
5.03	6.81645
5.04	6.80822
5.05	6.7694
5.06	6.73421
5.07	6.77927
5.08	6.77598
5.09	6.80098
5.1	6.80987
5.11	6.77204
5.12	6.77204
5.13	6.7444
5.14	6.78191
5.15	6.80263
5.16	6.73059
5.17	6.7194
5.18	6.74605
5.19	6.74079
5.2	6.73486
5.21	6.71546
5.22	6.78256
5.23	6.77269
5.24	6.72894
5.25	6.79342
5.26	6.68059
5.27	6.72434
5.28	6.74473
5.29	6.72072
5.3	6.7398
5.31	6.76644
5.32	6.70625
5.33	6.73289
5.34	6.75098
5.35	6.71282
5.36	6.72467
5.37	6.74901
5.38	6.74243
5.39	6.75065
5.4	6.70657
5.41	6.69177
5.42	6.65295
5.43	6.72401
5.44	6.70197
5.45	6.76348
5.46	6.70098
5.47	6.725
5.48	6.76283
5.49	6.78191
5.5	6.70986
5.51	6.72796
5.52	6.71611
5.53	6.65263
5.54	6.68059
5.55	6.69671
5.56	6.68881
5.57	6.6694
5.58	6.70888
5.59	6.6944
5.6	6.70361
5.61	6.72927
5.62	6.7398
5.63	6.67335
5.64	6.68256
5.65	6.69901
5.66	6.69144
5.67	6.66249
5.68	6.63124
5.69	6.66874
5.7	6.6546
5.71	6.6796
5.72	6.72861
5.73	6.68059
5.74	6.67598
5.75	6.64144
5.76	6.69177
5.77	6.71085
5.78	6.7421
5.79	6.68782
5.8	6.66545
5.81	6.68355
5.82	6.69802
5.83	6.61348
5.84	6.61315
5.85	6.6546
5.86	6.66776
5.87	6.63716
5.88	6.60822
5.89	6.63256
5.9	6.64769
5.91	6.70263
5.92	6.64045
5.93	6.59045
5.94	6.64045
5.95	6.6148
5.96	6.6319
5.97	6.65855
5.98	6.5796
5.99	6.58651
6	6.61052
6.01	6.63585
6.02	6.6319
6.03	6.62137
6.04	6.67927
6.05	6.61249
6.06	6.63552
6.07	6.58289
6.08	6.62137
6.09	6.6273
6.1	6.60657
6.11	6.63355
6.12	6.5819
6.13	6.59341
6.14	6.6569
6.15	6.63519
6.16	6.62499
6.17	6.60756
6.18	6.59572
6.19	6.62137
6.2	6.6217
6.21	6.56841
6.22	6.57697
6.23	6.60197
6.24	6.58914
6.25	6.61611
6.26	6.61118
6.27	6.57532
6.28	6.61447
6.29	6.63453
6.3	6.56085
6.31	6.59802
6.32	6.55295
6.33	6.58486
6.34	6.55328
6.35	6.62664
6.36	6.58914
6.37	6.58322
6.38	6.51907
6.39	6.60558
6.4	6.52433
6.41	6.5717
6.42	6.59835
6.43	6.59012
6.44	6.61776
6.45	6.59637
6.46	6.55361
6.47	6.5717
6.48	6.58519
6.49	6.59473
6.5	6.57302
6.51	6.57466
6.52	6.58552
6.53	6.58091
6.54	6.55624
6.55	6.55854
6.56	6.57697
6.57	6.53124
6.58	6.57203
6.59	6.51085
6.6	6.59506
6.61	6.55164
6.62	6.51874
6.63	6.50723
6.64	6.53223
6.65	6.54736
6.66	6.5217
6.67	6.5319
6.68	6.5467
6.69	6.50098
6.7	6.54111
6.71	6.5046
6.72	6.50098
6.73	6.55986
6.74	6.54835
6.75	6.52598
6.76	6.48881
6.77	6.51052
6.78	6.52466
6.79	6.52137
6.8	6.48519
6.81	6.52729
6.82	6.50887
6.83	6.53716
6.84	6.52894
6.85	6.48157
6.86	6.55887
6.87	6.53387
6.88	6.54341
6.89	6.5671
6.9	6.49966
6.91	6.51841
6.92	6.45657
6.93	6.46611
6.94	6.49769
6.95	6.51578
6.96	6.52992
6.97	6.49802
6.98	6.4944
6.99	6.45196
7	6.46808
7.01	6.51052
7.02	6.52203
7.03	6.46907
7.04	6.45065
7.05	6.46578
7.06	6.47828
7.07	6.47466
7.08	6.49275
7.09	6.45558
7.1	6.524
7.11	6.49538
7.12	6.53815
7.13	6.5217
7.14	6.50953
7.15	6.48749
7.16	6.48387
7.17	6.48552
7.18	6.4615
7.19	6.49604
7.2	6.4569
7.21	6.46479
7.22	6.49637
7.23	6.49144
7.24	6.48321
7.25	6.47005
7.26	6.4444
7.27	6.43486
7.28	6.46282
7.29	6.47894
7.3	6.49242
7.31	6.5115
7.32	6.50756
7.33	6.50427
7.34	6.47762
7.35	6.43946
7.36	6.46446
7.37	6.47104
7.38	6.4763
7.39	6.47269
7.4	6.41808
7.41	6.39999
7.42	6.41874
7.43	6.44769
7.44	6.40426
7.45	6.42334
7.46	6.44045
7.47	6.42828
7.48	6.41676
7.49	6.47565
7.5	6.40295
7.51	6.45492
7.52	6.449
7.53	6.51578
7.54	6.47861
7.55	6.46051
7.56	6.49111
7.57	6.42992
7.58	6.38979
7.59	6.43551
7.6	6.45295
7.61	6.44308
7.62	6.41808
7.63	6.40295
7.64	6.43979
7.65	6.44275
7.66	6.40591
7.67	6.43847
7.68	6.44242
7.69	6.47071
7.7	6.40657
7.71	6.41216
7.72	6.4217
7.73	6.42499
7.74	6.45788
7.75	6.43749
7.76	6.39275
7.77	6.42038
7.78	6.43387
7.79	6.39012
7.8	6.43749
7.81	6.41413
7.82	6.41479
7.83	6.39999
7.84	6.4569
7.85	6.43025
7.86	6.38387
7.87	6.42071
7.88	6.40525
7.89	6.39143
7.9	6.41545
7.91	6.40591
7.92	6.41808
7.93	6.37104
7.94	6.42828
7.95	6.40821
7.96	6.39242
7.97	6.42071
7.98	6.4115
7.99	6.37663
8	6.38683
8.01	6.42203
8.02	6.40788
8.03	6.37104
8.04	6.43058
8.05	6.424
8.06	6.40459
8.07	6.36512
8.08	6.40755
8.09	6.35196
8.1	6.34966
8.11	6.40624
8.12	6.40097
8.13	6.42729
8.14	6.41841
8.15	6.3865
8.16	6.40854
8.17	6.41775
8.18	6.41216
8.19	6.33683
8.2	6.34571
8.21	6.34308
8.22	6.3536
8.23	6.36117
8.24	6.30623
8.25	6.37301
8.26	6.36939
8.27	6.30788
8.28	6.3615
8.29	6.38387
8.3	6.35262
8.31	6.35426
8.32	6.35656
8.33	6.36939
8.34	6.38091
8.35	6.36939
8.36	6.35656
8.37	6.32202
8.38	6.33518
8.39	6.41051
8.4	6.37795
8.41	6.36907
8.42	6.32498
8.43	6.32762
8.44	6.34571
8.45	6.32038
8.46	6.29571
8.47	6.349
8.48	6.29373
8.49	6.33288
8.5	6.36578
8.51	6.33452
8.52	6.33913
8.53	6.32959
8.54	6.33551
8.55	6.36183
8.56	6.30656
8.57	6.32564
8.58	6.36907
8.59	6.34077
8.6	6.35821
8.61	6.30887
8.62	6.32466
8.63	6.35097
8.64	6.33156
8.65	6.31775
8.66	6.31742
8.67	6.35459
8.68	6.36051
8.69	6.33584
8.7	6.34209
8.71	6.29275
8.72	6.32466
8.73	6.30558
8.74	6.32696
8.75	6.26939
8.76	6.30492
8.77	6.32729
8.78	6.31972
8.79	6.3263
8.8	6.29143
8.81	6.30952
8.82	6.3365
8.83	6.30755
8.84	6.31676
8.85	6.30294
8.86	6.33452
8.87	6.28683
8.88	6.28156
8.89	6.26018
8.9	6.29998
8.91	6.274
8.92	6.28222
8.93	6.26808
8.94	6.30591
8.95	6.33946
8.96	6.26906
8.97	6.29044
8.98	6.31051
8.99	6.33814
9	6.26873
9.01	6.29472
9.02	6.30623
9.03	6.274
9.04	6.28979
9.05	6.28255
9.06	6.29242
9.07	6.28946
9.08	6.2888
9.09	6.27762
9.1	6.27498
9.11	6.28419
9.12	6.26281
9.13	6.29538
9.14	6.28814
9.15	6.28485
9.16	6.29406
9.17	6.31775
9.18	6.28452
9.19	6.29604
9.2	6.26906
9.21	6.27301
9.22	6.2434
9.23	6.25097
9.24	6.24932
9.25	6.24669
9.26	6.24571
9.27	6.26281
9.28	6.27301
9.29	6.26577
9.3	6.29275
9.31	6.28058
9.32	6.24307
9.33	6.20196
9.34	6.24373
9.35	6.29768
9.36	6.30887
9.37	6.29735
9.38	6.25755
9.39	6.25031
9.4	6.28222
9.41	6.28781
9.42	6.22597
9.43	6.25492
9.44	6.26347
9.45	6.24275
9.46	6.23123
9.47	6.21413
9.48	6.27268
9.49	6.26775
9.5	6.249
9.51	6.21117
9.52	6.24472
9.53	6.23946
9.54	6.26544
9.55	6.21051
9.56	6.18847
9.57	6.23156
9.58	6.19603
9.59	6.22202
9.6	6.23321
9.61	6.22696
9.62	6.20196
9.63	6.22202
9.64	6.20623
9.65	6.21643
9.66	6.19044
9.67	6.22926
9.68	6.24176
9.69	6.26577
9.7	6.25886
9.71	6.22301
9.72	6.20492
9.73	6.2263
9.74	6.19965
9.75	6.19439
9.76	6.21742
9.77	6.16248
9.78	6.20689
9.79	6.20821
9.8	6.20426
9.81	6.18649
9.82	6.22367
9.83	6.20722
9.84	6.18551
9.85	6.19373
9.86	6.18847
9.87	6.19899
9.88	6.18419
9.89	6.21906
9.9	6.19439
9.91	6.23682
9.92	6.20985
9.93	6.24242
9.94	6.2411
9.95	6.19636
9.96	6.17498
9.97	6.17169
9.98	6.2365
9.99	6.21314
10	6.2059
10.01	6.19636
10.02	6.24373
10.03	6.19867
10.04	6.22926
10.05	6.17992
10.06	6.16215
10.07	6.16018
10.08	6.17334
10.09	6.19274
10.1	6.14176
10.11	6.20952
10.12	6.18847
10.13	6.2559
10.14	6.20492
10.15	6.23222
10.16	6.17992
10.17	6.17827
10.18	6.17959
10.19	6.14702
10.2	6.13156
10.21	6.16643
10.22	6.17268
10.23	6.1934
10.24	6.22728
10.25	6.21873
10.26	6.19077
10.27	6.14241
10.28	6.18485
10.29	6.15623
10.3	6.18024
10.31	6.16676
10.32	6.13156
10.33	6.20886
10.34	6.17103
10.35	6.14274
10.36	6.17268
10.37	6.21939
10.38	6.1888
10.39	6.18781
10.4	6.17794
10.41	6.17728
10.42	6.13419
10.43	6.13485
10.44	6.23222
10.45	6.17268
10.46	6.18715
10.47	6.21446
10.48	6.16741
10.49	6.2036
10.5	6.16511
10.51	6.1786
10.52	6.20064
10.53	6.23353
10.54	6.1911
10.55	6.16511
10.56	6.20952
10.57	6.23321
10.58	6.1786
10.59	6.14208
10.6	6.1957
10.61	6.22103
10.62	6.20952
10.63	6.1388
10.64	6.15886
10.65	6.20985
10.66	6.19702
10.67	6.14176
10.68	6.17169
10.69	6.15228
10.7	6.17959
10.71	6.13452
10.72	6.1559
10.73	6.14406
10.74	6.16478
10.75	6.17827
10.76	6.14143
10.77	6.12004
10.78	6.1434
10.79	6.1388
10.8	6.18024
10.81	6.17959
10.82	6.12991
10.83	6.13649
10.84	6.1513
10.85	6.18189
10.86	6.17761
10.87	6.1332
10.88	6.15952
10.89	6.18551
10.9	6.14439
10.91	6.16807
10.92	6.12399
10.93	6.11314
10.94	6.13814
10.95	6.19603
10.96	6.16413
10.97	6.17399
10.98	6.16116
10.99	6.1809
11	6.15327
11.01	6.15853
11.02	6.1559
11.03	6.17399
11.04	6.14505
11.05	6.1513
11.06	6.11215
11.07	6.16248
11.08	6.17103
11.09	6.12235
11.1	6.10853
11.11	6.13781
11.12	6.11807
11.13	6.14274
11.14	6.09472
11.15	6.1082
11.16	6.08485
11.17	6.11643
11.18	6.14439
11.19	6.15985
11.2	6.11149
11.21	6.09274
11.22	6.1082
11.23	6.10195
11.24	6.07564
11.25	6.15722
11.26	6.14044
11.27	6.12761
11.28	6.12728
11.29	6.09965
11.3	6.14044
11.31	6.15919
11.32	6.12136
11.33	6.11774
11.34	6.0911
11.35	6.16051
11.36	6.1036
11.37	6.08353
11.38	6.08847
11.39	6.08353
11.4	6.10064
11.41	6.08978
11.42	6.10129
11.43	6.12004
11.44	6.19735
11.45	6.12103
11.46	6.08781
11.47	6.1184
11.48	6.098
11.49	6.12366
11.5	6.12037
11.51	6.12103
11.52	6.09702
11.53	6.09472
11.54	6.13287
11.55	6.06017
11.56	6.13518
11.57	6.13682
11.58	6.10524
11.59	6.07958
11.6	6.0855
11.61	6.08419
11.62	6.09439
11.63	6.13287
11.64	6.12432
11.65	6.1036
11.66	6.12926
11.67	6.07136
11.68	6.05886
11.69	6.07531
11.7	6.11643
11.71	6.09932
11.72	6.08419
11.73	6.07695
11.74	6.11149
11.75	6.1309
11.76	6.17334
11.77	6.06906
11.78	6.08156
11.79	6.12465
11.8	6.11248
11.81	6.10491
11.82	6.11807
11.83	6.0855
11.84	6.10722
11.85	6.09439
11.86	6.12136
11.87	6.07629
11.88	6.08057
11.89	6.08649
11.9	6.0786
11.91	6.07037
11.92	6.08123
11.93	6.09406
11.94	6.09143
11.95	6.08156
11.96	6.0786
11.97	6.0786
11.98	6.13156
11.99	6.09472
12	6.09603
12.01	6.1059
12.02	6.13353
12.03	6.08847
12.04	6.11774
12.05	6.10261
12.06	6.06478
12.07	6.05491
12.08	6.06577
12.09	6.04998
12.1	6.10853
12.11	6.12662
12.12	6.10524
12.13	6.06939
12.14	6.05195
12.15	6.09439
12.16	6.05754
12.17	6.05261
12.18	6.09274
12.19	6.0707
12.2	6.03682
12.21	6.05853
12.22	6.0559
12.23	6.09537
12.24	6.0559
12.25	6.06248
12.26	6.05162
12.27	6.05524
12.28	6.09439
12.29	6.07827
12.3	6.05656
12.31	6.04899
12.32	6.04965
12.33	6.03583
12.34	6.11215
12.35	6.06379
12.36	6.13123
12.37	6.13814
12.38	6.09636
12.39	6.06544
12.4	6.08715
12.41	6.11577
12.42	6.09669
12.43	6.07268
12.44	6.0957
12.45	6.14932
12.46	6.09175
12.47	6.07169
12.48	6.11149
12.49	6.09472
12.5	6.06675
12.51	6.07465
12.52	6.05557
12.53	6.04636
12.54	6.07794
12.55	6.05327
12.56	6.0184
12.57	6.01807
12.58	6.0082
12.59	6.03715
12.6	6.04208
12.61	6.05754
12.62	6.06642
12.63	6.04274
12.64	6.05754
12.65	6.07564
12.66	6.06906
12.67	6.01379
12.68	5.98945
12.69	6.0457
12.7	6.06182
12.71	6.0434
12.72	6.03715
12.73	6.05919
12.74	6.04932
12.75	6.06412
12.76	6.0684
12.77	6.0559
12.78	6.05228
12.79	6.05425
12.8	6.06642
12.81	6.0536
12.82	6.05425
12.83	6.06182
12.84	6.0684
12.85	6.05425
12.86	5.98813
12.87	5.98649
12.88	6.03748
12.89	6.06215
12.9	6.03254
12.91	6.02859
12.92	6.05425
12.93	6.05129
12.94	6.07037
12.95	5.97826
12.96	5.98715
12.97	6.06906
12.98	6.0536
12.99	6.02794
13	6.05096
13.01	6.03846
13.02	6.03978
13.03	6.01412
13.04	6.0661
13.05	6.01807
13.06	6.05261
13.07	6.04208
13.08	6.03813
13.09	6.0309
13.1	6.01873
13.11	6.03781
13.12	6.02366
13.13	6.01281
13.14	6.01741
13.15	6.02432
13.16	6.01149
13.17	5.98155
13.18	6.0207
13.19	5.99767
13.2	6.00491
13.21	5.98715
13.22	6.02267
13.23	6.01938
13.24	5.97366
13.25	5.97399
13.26	6.01741
13.27	5.99998
13.28	6.03715
13.29	6.03583
13.3	5.97432
13.31	5.99734
13.32	6.01313
13.33	6.04077
13.34	5.98813
13.35	6.00688
13.36	5.97728
13.37	5.99899
13.38	5.98616
13.39	6.00096
13.4	5.96313
13.41	6.01971
13.42	6.01938
13.43	6.03188
13.44	6.03221
13.45	6.04044
13.46	6.05096
13.47	6.03386
13.48	6.00327
13.49	6.03221
13.5	6.02136
13.51	6.0184
13.52	6.01675
13.53	6.00524
13.54	5.99866
13.55	5.96083
13.56	6.01708
13.57	6.00425
13.58	6.01675
13.59	6.01642
13.6	6.02399
13.61	6.06182
13.62	6.02465
13.63	6.03813
13.64	6.03057
13.65	6.03748
13.66	6.02728
13.67	5.98813
13.68	5.98879
13.69	6.03156
13.7	5.9957
13.71	5.97037
13.72	6.01149
13.73	6.0207
13.74	5.97892
13.75	5.97037
13.76	5.95326
13.77	5.97465
13.78	5.98616
13.79	6.00623
13.8	6.03188
13.81	6.00129
13.82	6.00228
13.83	5.95063
13.84	5.94274
13.85	5.92859
13.86	6.00952
13.87	6.00359
13.88	6.04504
13.89	6.00491
13.9	6.00129
13.91	5.98846
13.92	6.01741
13.93	6.0309
13.94	6.00359
13.95	6.00557
13.96	6.03188
13.97	5.97234
13.98	6.03287
13.99	6.01412
14	6.01577
14.01	5.97925
14.02	5.95063
14.03	5.95951
14.04	5.99932
14.05	6.01281
14.06	5.98583
14.07	6.02629
14.08	5.98254
14.09	6.00557
14.1	6.02498
14.11	6.01182
14.12	5.9934
14.13	5.98912
14.14	5.97333
14.15	5.97201
14.16	5.9628
14.17	5.99965
14.18	6.03517
14.19	6.00129
14.2	6.00458
14.21	6.02234
14.22	6.04077
14.23	6.02432
14.24	6.02662
14.25	5.98057
14.26	5.94175
14.27	5.95655
14.28	5.98024
14.29	5.99669
14.3	5.97662
14.31	6.01445
14.32	5.98221
14.33	5.99109
14.34	5.96544
14.35	6.01281
14.36	6.01971
14.37	5.99833
14.38	5.98945
14.39	5.99438
14.4	5.99669
14.41	5.95655
14.42	5.99175
14.43	6.00688
14.44	6.01313
14.45	5.92333
14.46	5.97103
14.47	6.01149
14.48	5.96708
14.49	5.98057
14.5	5.97859
14.51	5.96478
14.52	5.96313
14.53	5.96544
14.54	5.97103
14.55	5.99603
14.56	5.95524
14.57	5.98386
14.58	6.00195
14.59	5.95293
14.6	5.96609
14.61	5.98057
14.62	5.97629
14.63	5.93747
14.64	5.94076
14.65	5.99076
14.66	5.94274
14.67	5.96445
14.68	5.96083
14.69	5.98287
14.7	5.98484
14.71	5.99866
14.72	6.01412
14.73	5.95754
14.74	5.9809
14.75	5.98419
14.76	5.94076
14.77	5.92333
14.78	5.94043
14.79	5.97826
14.8	5.97991
14.81	5.96544
14.82	5.94965
14.83	5.92234
14.84	5.95491
14.85	5.96182
14.86	5.98813
14.87	6.00162
14.88	5.99866
14.89	6.01906
14.9	5.98287
14.91	5.95754
14.92	5.97004
14.93	5.96083
14.94	5.98616
14.95	6.01248
14.96	5.94668
14.97	5.98846
14.98	5.97991
14.99	5.98879
15	6.01971
15.01	6.01346
15.02	5.99767
15.03	5.98287
15.04	5.93616
15.05	5.94043
15.06	5.95622
15.07	5.94142
15.08	5.90951
15.09	5.94076
15.1	5.96379
15.11	5.97267
15.12	5.9503
15.13	5.98583
15.14	5.9809
15.15	5.96708
15.16	5.99175
15.17	5.94965
15.18	5.95984
15.19	5.94307
15.2	5.96379
15.21	5.93879
15.22	5.93616
15.23	5.9684
15.24	5.94636
15.25	5.97201
15.26	5.96313
15.27	5.97366
15.28	5.93188
15.29	5.93912
15.3	5.89603
15.31	5.93813
15.32	5.94208
15.33	5.91149
15.34	5.91708
15.35	5.94405
15.36	5.97761
15.37	5.92859
15.38	5.95491
15.39	5.96379
15.4	5.96083
15.41	5.9628
15.42	5.91642
15.43	5.91839
15.44	5.94504
15.45	5.92662
15.46	5.9128
15.47	5.94241
15.48	5.91872
15.49	5.91905
15.5	5.96017
15.51	5.94767
15.52	5.97826
15.53	5.96478
15.54	5.95063
15.55	5.97267
15.56	5.89537
15.57	5.93089
15.58	5.91379
15.59	5.91675
15.6	5.93649
15.61	5.93616
15.62	5.88451
15.63	5.92168
15.64	5.88747
15.65	5.98583
15.66	5.93418
15.67	5.9434
15.68	5.94833
15.69	5.87826
15.7	5.92037
15.71	5.92103
15.72	5.94636
15.73	5.91313
15.74	5.92234
15.75	5.94668
15.76	5.97728
15.77	5.98879
15.78	5.95293
15.79	5.93057
15.8	5.88846
15.81	5.98386
15.82	5.898
15.83	5.97497
15.84	5.93649
15.85	5.93912
15.86	5.9332
15.87	5.94011
15.88	5.94109
15.89	5.96544
15.9	5.99076
15.91	5.93287
15.92	5.89866
15.93	5.91445
15.94	5.91247
15.95	5.89471
15.96	5.86971
15.97	5.91182
15.98	5.98813
15.99	5.90853
16	5.93386
16.01	5.88056
16.02	5.94043
16.03	5.94274
16.04	5.94997
16.05	5.94734
16.06	5.89668
16.07	5.90557
16.08	5.95655
16.09	5.93024
16.1	5.92761
16.11	5.9332
16.12	5.94142
16.13	5.93912
16.14	5.92037
16.15	5.86576
16.16	5.88056
16.17	5.90063
16.18	5.89208
16.19	5.90885
16.2	5.92925
16.21	5.9559
16.22	5.93353
16.23	5.90721
16.24	5.91609
16.25	5.95096
16.26	5.92399
16.27	5.93089
16.28	5.93188
16.29	5.91675
16.3	5.93682
16.31	5.88714
16.32	5.87826
16.33	5.91708
16.34	5.93122
16.35	5.91938
16.36	5.89668
16.37	5.90688
16.38	5.93057
16.39	5.94372
16.4	5.90359
16.41	5.95721
16.42	5.96083
16.43	5.92497
16.44	5.91839
16.45	5.91741
16.46	5.92267
16.47	5.9809
16.48	5.92761
16.49	5.89537
16.5	5.94274
16.51	5.92333
16.52	5.90655
16.53	5.96971
16.54	5.92201
16.55	5.98616
16.56	5.92103
16.57	5.89076
16.58	5.92103
16.59	5.92399
16.6	5.94307
16.61	5.9684
16.62	5.90655
16.63	5.87958
16.64	5.86083
16.65	5.88352
16.66	5.91478
16.67	5.92958
16.68	5.91379
16.69	5.91642
16.7	5.95951
16.71	5.94175
16.72	5.98386
16.73	5.92366
16.74	5.88451
16.75	5.90195
16.76	5.88616
16.77	5.93846
16.78	5.93353
16.79	5.96215
16.8	5.96576
16.81	5.88681
16.82	5.92168
16.83	5.91445
16.84	5.94241
16.85	5.88484
16.86	5.89109
16.87	5.91379
16.88	5.89899
16.89	5.92333
16.9	5.89734
16.91	5.91017
16.92	5.90162
16.93	5.95129
16.94	5.95162
16.95	5.90721
16.96	5.87793
16.97	5.93714
16.98	5.85754
16.99	5.88681
17	5.90622
17.01	5.92103
17.02	5.88846
17.03	5.91214
17.04	5.92991
17.05	5.91938
17.06	5.9378
17.07	5.91445
17.08	5.93188
17.09	5.90918
17.1	5.87859
17.11	5.90491
17.12	5.90359
17.13	5.93386
17.14	5.92168
17.15	5.87563
17.16	5.88583
17.17	5.90096
17.18	5.90885
17.19	5.90951
17.2	5.91839
17.21	5.9253
17.22	5.91741
17.23	5.91741
17.24	5.93945
17.25	5.89175
17.26	5.898
17.27	5.9434
17.28	5.90096
17.29	5.86148
17.3	5.84471
17.31	5.87629
17.32	5.88517
17.33	5.89866
17.34	5.90195
17.35	5.88616
17.36	5.91642
17.37	5.94274
17.38	5.87497
17.39	5.91412
17.4	5.85425
17.41	5.84997
17.42	5.88747
17.43	5.86708
17.44	5.8253
17.45	5.89603
17.46	5.88813
17.47	5.89405
17.48	5.84142
17.49	5.91543
17.5	5.85491
17.51	5.90425
17.52	5.89208
17.53	5.86477
17.54	5.87267
17.55	5.88287
17.56	5.86247
17.57	5.82892
17.58	5.86346
17.59	5.96149
17.6	5.93254
17.61	5.92991
17.62	5.86938
17.63	5.91346
17.64	5.90853
17.65	5.89997
17.66	5.90458
17.67	5.86971
17.68	5.87201
17.69	5.88583
17.7	5.86477
17.71	5.88649
17.72	5.84701
17.73	5.90557
17.74	5.94405
17.75	5.92761
17.76	5.90787
17.77	5.95228
17.78	5.92168
17.79	5.92793
17.8	5.89833
17.81	5.90754
17.82	5.85852
17.83	5.90392
17.84	5.91774
17.85	5.90458
17.86	5.89964
17.87	5.88484
17.88	5.8901
17.89	5.86708
17.9	5.92464
17.91	5.91017
17.92	5.91839
17.93	5.91346
17.94	5.89471
17.95	5.82958
17.96	5.81346
17.97	5.84471
17.98	5.85129
17.99	5.84602
18	5.85655
18.01	5.86214
18.02	5.88978
18.03	5.88122
18.04	5.87037
18.05	5.85852
18.06	5.88254
18.07	5.81806
18.08	5.85721
18.09	5.86445
18.1	5.90129
18.11	5.96642
18.12	5.94043
18.13	5.90129
18.14	5.87234
18.15	5.90918
18.16	5.87135
18.17	5.89438
18.18	5.88978
18.19	5.83648
18.2	5.91182
18.21	5.87826
18.22	5.83747
18.23	5.83254
18.24	5.84241
18.25	5.82333
18.26	5.86872
18.27	5.84866
18.28	5.89767
18.29	5.91971
18.3	5.91839
18.31	5.87234
18.32	5.85458
18.33	5.95557
18.34	5.88484
18.35	5.87168
18.36	5.92464
18.37	5.88583
18.38	5.84668
18.39	5.91247
18.4	5.92629
18.41	5.86379
18.42	5.8378
18.43	5.87727
18.44	5.86576
18.45	5.81379
18.46	5.8776
18.47	5.85951
18.48	5.88846
18.49	5.90754
18.5	5.86313
18.51	5.90984
18.52	5.87859
18.53	5.8628
18.54	5.92168
18.55	5.89043
18.56	5.88155
18.57	5.85063
18.58	5.87497
18.59	5.86905
18.6	5.87563
18.61	5.90524
18.62	5.86675
18.63	5.89833
18.64	5.92728
18.65	5.88978
18.66	5.89504
18.67	5.90228
18.68	5.88616
18.69	5.87662
18.7	5.89241
18.71	5.83155
18.72	5.84273
18.73	5.85984
18.74	5.88254
18.75	5.89701
18.76	5.86017
18.77	5.85359
18.78	5.848
18.79	5.89274
18.8	5.91214
18.81	5.87497
18.82	5.91872
18.83	5.89241
18.84	5.85063
18.85	5.91346
18.86	5.90359
18.87	5.90491
18.88	5.9026
18.89	5.88352
18.9	5.88221
18.91	5.84109
18.92	5.87727
18.93	5.84668
18.94	5.88945
18.95	5.85589
18.96	5.84372
18.97	5.89438
18.98	5.84339
18.99	5.88484
19	5.84734
19.01	5.89767
19.02	5.84076
19.03	5.84339
19.04	5.90655
19.05	5.87135
19.06	5.86806
19.07	5.89668
19.08	5.87497
19.09	5.85918
19.1	5.87563
19.11	5.91905
19.12	5.87892
19.13	5.87168
19.14	5.85754
19.15	5.89438
19.16	5.85392
19.17	5.85326
19.18	5.80721
19.19	5.80688
19.2	5.86642
19.21	5.86872
19.22	5.85951
19.23	5.84109
19.24	5.88122
19.25	5.89734
19.26	5.89405
19.27	5.91445
19.28	5.86806
19.29	5.8628
19.3	5.85162
19.31	5.84635
19.32	5.84372
19.33	5.8526
19.34	5.87399
19.35	5.88385
19.36	5.87596
19.37	5.83912
19.38	5.80721
19.39	5.87037
19.4	5.85951
19.41	5.86214
19.42	5.8003
19.43	5.85622
19.44	5.86083
19.45	5.83714
19.46	5.8355
19.47	5.86181
19.48	5.90853
19.49	5.90293
19.5	5.86971
19.51	5.88188
19.52	5.87563
19.53	5.80951
19.54	5.82596
19.55	5.8582
19.56	5.88385
19.57	5.89668
19.58	5.848
19.59	5.86379
19.6	5.84569
19.61	5.81181
19.62	5.8526
19.63	5.85359
19.64	5.898
19.65	5.87234
19.66	5.84734
19.67	5.84208
19.68	5.84076
19.69	5.84898
19.7	5.87234
19.71	5.87135
19.72	5.83747
19.73	5.823
19.74	5.87333
19.75	5.85425
19.76	5.823
19.77	5.86116
19.78	5.87234
19.79	5.85688
19.8	5.85425
19.81	5.8832
19.82	5.86839
19.83	5.84504
19.84	5.86083
19.85	5.85063
19.86	5.82892
19.87	5.80622
19.88	5.83155
19.89	5.87629
19.9	5.81642
19.91	5.86214
19.92	5.848
19.93	5.83944
19.94	5.83583
19.95	5.84964
19.96	5.85162
19.97	5.86214
19.98	5.82694
19.99	5.83484
20	5.82398
20.01	5.80622
20.02	5.79602
20.03	5.83122
20.04	5.82497
20.05	5.82958
20.06	5.82563
20.07	5.85754
20.08	5.86247
20.09	5.88714
20.1	5.85195
20.11	5.85129
20.12	5.90885
20.13	5.84504
20.14	5.82135
20.15	5.84339
20.16	5.85096
20.17	5.88879
20.18	5.88024
20.19	5.76839
20.2	5.8174
20.21	5.83122
20.22	5.8378
20.23	5.87333
20.24	5.90524
20.25	5.85984
20.26	5.89504
20.27	5.84569
20.28	5.84602
20.29	5.8707
20.3	5.90458
20.31	5.88056
20.32	5.85491
20.33	5.85162
20.34	5.84569
20.35	5.86905
20.36	5.86642
20.37	5.83846
20.38	5.84668
20.39	5.8753
20.4	5.86313
20.41	5.80425
20.42	5.81938
20.43	5.82135
20.44	5.84898
20.45	5.81181
20.46	5.86576
20.47	5.90918
20.48	5.89405
20.49	5.89504
20.5	5.86477
20.51	5.89208
20.52	5.86806
20.53	5.87135
20.54	5.8605
20.55	5.90688
20.56	5.86872
20.57	5.83089
20.58	5.86083
20.59	5.84997
20.6	5.87102
20.61	5.82267
20.62	5.84306
20.63	5.86642
20.64	5.83747
20.65	5.84372
20.66	5.82892
20.67	5.8707
20.68	5.88583
20.69	5.91543
20.7	5.88352
20.71	5.84767
20.72	5.87563
20.73	5.93089
20.74	5.90688
20.75	5.87135
20.76	5.80359
20.77	5.81675
20.78	5.84241
20.79	5.85063
20.8	5.82596
20.81	5.83155
20.82	5.84964
20.83	5.85951
20.84	5.86477
20.85	5.82859
20.86	5.88221
20.87	5.86774
20.88	5.83583
20.89	5.86445
20.9	5.88221
20.91	5.83879
20.92	5.86379
20.93	5.87629
20.94	5.8276
20.95	5.84734
20.96	5.87366
20.97	5.91609
20.98	5.86774
20.99	5.84109
21	5.82958
21.01	5.8707
21.02	5.83813
21.03	5.88024
21.04	5.84602
21.05	5.89734
21.06	5.92234
21.07	5.8855
21.08	5.88978
21.09	5.84537
21.1	5.83287
21.11	5.81642
21.12	5.8776
21.13	5.8776
21.14	5.88385
21.15	5.848
21.16	5.79767
21.17	5.84537
21.18	5.78681
21.19	5.82662
21.2	5.83484
21.21	5.83418
21.22	5.8707
21.23	5.89076
21.24	5.84997
21.25	5.84898
21.26	5.81971
21.27	5.82925
21.28	5.81642
21.29	5.80721
21.3	5.85523
21.31	5.80425
21.32	5.84273
21.33	5.86774
21.34	5.86214
21.35	5.8707
21.36	5.85951
21.37	5.85951
21.38	5.85063
21.39	5.86938
21.4	5.91116
21.41	5.83287
21.42	5.84471
21.43	5.85129
21.44	5.86181
21.45	5.83912
21.46	5.84537
21.47	5.82662
21.48	5.87859
21.49	5.82596
21.5	5.86576
21.51	5.86543
21.52	5.83747
21.53	5.87563
21.54	5.86346
21.55	5.79339
21.56	5.78286
21.57	5.84635
21.58	5.86247
21.59	5.8026
21.6	5.86247
21.61	5.84208
21.62	5.84273
21.63	5.86181
21.64	5.84734
21.65	5.8299
21.66	5.8582
21.67	5.85096
21.68	5.83221
21.69	5.79175
21.7	5.80326
21.71	5.85688
21.72	5.82037
21.73	5.80063
21.74	5.85688
21.75	5.81839
21.76	5.85556
21.77	5.82004
21.78	5.80819
21.79	5.8276
21.8	5.8049
21.81	5.80359
21.82	5.87037
21.83	5.89109
21.84	5.84142
21.85	5.84175
21.86	5.84438
21.87	5.8605
21.88	5.81247
21.89	5.81346
21.9	5.84701
21.91	5.81872
21.92	5.83451
21.93	5.83352
21.94	5.85227
21.95	5.87925
21.96	5.85458
21.97	5.7776
21.98	5.82004
21.99	5.87333
22	5.88451
22.01	5.87793
22.02	5.82958
22.03	5.85227
22.04	5.86971
22.05	5.85984
22.06	5.83648
22.07	5.85425
22.08	5.88714
22.09	5.85162
22.1	5.85655
22.11	5.82398
22.12	5.80951
22.13	5.81839
22.14	5.76806
22.15	5.79668
22.16	5.85754
22.17	5.84931
22.18	5.82859
22.19	5.86938
22.2	5.8299
22.21	5.80556
22.22	5.76806
22.23	5.78944
22.24	5.84241
22.25	5.84175
22.26	5.80194
22.27	5.82431
22.28	5.84898
22.29	5.81379
22.3	5.83319
22.31	5.79602
22.32	5.77497
22.33	5.82596
22.34	5.85129
22.35	5.82793
22.36	5.823
22.37	5.8355
22.38	5.84734
22.39	5.81675
22.4	5.85556
22.41	5.79767
22.42	5.81181
22.43	5.84438
22.44	5.84405
22.45	5.81938
22.46	5.81576
22.47	5.85885
22.48	5.83484
22.49	5.83451
22.5	5.82958
22.51	5.83944
22.52	5.88747
22.53	5.86346
22.54	5.81181
22.55	5.8355
22.56	5.83221
22.57	5.85754
22.58	5.79339
22.59	5.79997
22.6	5.83188
22.61	5.85589
22.62	5.79898
22.63	5.79602
22.64	5.85721
22.65	5.83583
22.66	5.80293
22.67	5.79602
22.68	5.86181
22.69	5.8026
22.7	5.77826
22.71	5.81609
22.72	5.78385
22.73	5.78681
22.74	5.85622
22.75	5.77267
22.76	5.79504
22.77	5.82694
22.78	5.79175
22.79	5.8401
22.8	5.84273
22.81	5.86313
22.82	5.81181
22.83	5.84208
22.84	5.82497
22.85	5.84898
22.86	5.78879
22.87	5.8003
22.88	5.77694
22.89	5.80293
22.9	5.81971
22.91	5.81905
22.92	5.77563
22.93	5.80984
22.94	5.79865
22.95	5.77135
22.96	5.81971
22.97	5.84339
22.98	5.82431
22.99	5.87991
23	5.87991
23.01	5.79405
23.02	5.78517
23.03	5.79471
23.04	5.8049
23.05	5.83912
23.06	5.82793
23.07	5.84208
23.08	5.85556
23.09	5.79306
23.1	5.79076
23.11	5.79207
23.12	5.78615
23.13	5.80852
23.14	5.83451
23.15	5.85852
23.16	5.83023
23.17	5.78582
23.18	5.8276
23.19	5.81905
23.2	5.79833
23.21	5.80721
23.22	5.79931
23.23	5.83188
23.24	5.79372
23.25	5.78879
23.26	5.79405
23.27	5.79701
23.28	5.7855
23.29	5.8378
23.3	5.83122
23.31	5.85852
23.32	5.81839
23.33	5.8049
23.34	5.82596
23.35	5.81115
23.36	5.81083
23.37	5.81017
23.38	5.78122
23.39	5.80589
23.4	5.82201
23.41	5.82365
23.42	5.80063
23.43	5.78813
23.44	5.83616
23.45	5.81247
23.46	5.83221
23.47	5.76773
23.48	5.78879
23.49	5.80129
23.5	5.81083
23.51	5.82596
23.52	5.84866
23.53	5.83944
23.54	5.78846
23.55	5.81872
23.56	5.80129
23.57	5.78221
23.58	5.73878
23.59	5.79964
23.6	5.84438
23.61	5.78319
23.62	5.81938
23.63	5.80589
23.64	5.82629
23.65	5.8276
23.66	5.83747
23.67	5.80852
23.68	5.76971
23.69	5.85721
23.7	5.80688
23.71	5.8049
23.72	5.77201
23.73	5.85589
23.74	5.80425
23.75	5.87892
23.76	5.79273
23.77	5.7901
23.78	5.76017
23.79	5.81181
23.8	5.78944
23.81	5.8128
23.82	5.82004
23.83	5.7901
23.84	5.81609
23.85	5.79668
23.86	5.82694
23.87	5.85129
23.88	5.82826
23.89	5.8253
23.9	5.85655
23.91	5.85721
23.92	5.82464
23.93	5.79043
23.94	5.79504
23.95	5.80622
23.96	5.84964
23.97	5.78911
23.98	5.81905
23.99	5.82037
24	5.78517
24.01	5.82102
24.02	5.86708
24.03	5.84833
24.04	5.79207
24.05	5.76872
24.06	5.81806
24.07	5.80194
24.08	5.80359
24.09	5.83944
24.1	5.85852
24.11	5.84635
24.12	5.85195
24.13	5.87892
24.14	5.80721
24.15	5.84701
24.16	5.82464
24.17	5.8026
24.18	5.8151
24.19	5.78714
24.2	5.79898
24.21	5.80984
24.22	5.83089
24.23	5.8128
24.24	5.8378
24.25	5.82135
24.26	5.85491
24.27	5.83451
24.28	5.82333
24.29	5.84208
24.3	5.823
24.31	5.82793
24.32	5.77596
24.33	5.8003
24.34	5.86445
24.35	5.8503
24.36	5.82398
24.37	5.77826
24.38	5.82892
24.39	5.81346
24.4	5.83122
24.41	5.80523
24.42	5.79175
24.43	5.84109
24.44	5.82398
24.45	5.78911
24.46	5.82925
24.47	5.82267
24.48	5.80096
24.49	5.80425
24.5	5.81806
24.51	5.82958
24.52	5.82234
24.53	5.82563
24.54	5.79898
24.55	5.83846
24.56	5.77957
24.57	5.78418
24.58	5.76971
24.59	5.77036
24.6	5.76576
24.61	5.79767
24.62	5.81346
24.63	5.81477
24.64	5.78089
24.65	5.76411
24.66	5.78352
24.67	5.81576
24.68	5.81839
24.69	5.80984
24.7	5.84931
24.71	5.8174
24.72	5.77859
24.73	5.7901
24.74	5.82333
24.75	5.81971
24.76	5.84898
24.77	5.83879
24.78	5.81675
24.79	5.83846
24.8	5.81938
24.81	5.79043
24.82	5.78615
24.83	5.80885
24.84	5.78155
24.85	5.75655
24.86	5.79767
24.87	5.82892
24.88	5.8355
24.89	5.81806
24.9	5.82004
24.91	5.84734
24.92	5.81576
24.93	5.81115
24.94	5.83155
24.95	5.77694
24.96	5.78286
24.97	5.77859
24.98	5.81938
24.99	5.80885
25	5.80918
25.01	5.86148
25.02	5.8253
25.03	5.78582
25.04	5.79701
25.05	5.84438
25.06	5.77727
25.07	5.76905
25.08	5.76082
25.09	5.78517
25.1	5.79898
25.11	5.86806
25.12	5.81115
25.13	5.82234
25.14	5.82859
25.15	5.79701
25.16	5.78582
25.17	5.79865
25.18	5.8355
25.19	5.7924
25.2	5.76872
25.21	5.77168
25.22	5.79142
25.23	5.78517
25.24	5.81543
25.25	5.81839
25.26	5.81477
25.27	5.7855
25.28	5.7901
25.29	5.84405
25.3	5.8276
25.31	5.80359
25.32	5.8605
25.33	5.86905
25.34	5.84208
25.35	5.84701
25.36	5.77497
25.37	5.83517
25.38	5.80161
25.39	5.78911
25.4	5.7674
25.41	5.80293
25.42	5.82037
25.43	5.80523
25.44	5.78221
25.45	5.80918
25.46	5.79931
25.47	5.81675
25.48	5.84208
25.49	5.80984
25.5	5.80885
25.51	5.81872
25.52	5.82069
25.53	5.80951
25.54	5.78385
25.55	5.80721
25.56	5.81247
25.57	5.79569
25.58	5.75721
25.59	5.78319
25.6	5.81115
25.61	5.81346
25.62	5.80227
25.63	5.79306
25.64	5.80523
25.65	5.81444
25.66	5.79372
25.67	5.77135
25.68	5.79668
25.69	5.8049
25.7	5.78846
25.71	5.76543
25.72	5.80359
25.73	5.79438
25.74	5.83056
25.75	5.81675
25.76	5.80326
25.77	5.79536
25.78	5.78286
25.79	5.80161
25.8	5.83352
25.81	5.77957
25.82	5.78155
25.83	5.82201
25.84	5.81115
25.85	5.81708
25.86	5.83319
25.87	5.81313
25.88	5.80458
25.89	5.84866
25.9	5.79043
25.91	5.80063
25.92	5.81971
25.93	5.76971
25.94	5.78254
25.95	5.8151
25.96	5.82694
25.97	5.77957
25.98	5.82267
25.99	5.80458
26	5.83254
26.01	5.80523
26.02	5.83352
26.03	5.80918
26.04	5.82069
26.05	5.75128
26.06	5.80852
26.07	5.77563
26.08	5.75753
26.09	5.81905
26.1	5.78188
26.11	5.77694
26.12	5.73648
26.13	5.73582
26.14	5.7901
26.15	5.83287
26.16	5.81971
26.17	5.77201
26.18	5.78648
26.19	5.7526
26.2	5.75063
26.21	5.79668
26.22	5.77661
26.23	5.7878
26.24	5.78023
26.25	5.80688
26.26	5.86543
26.27	5.81773
26.28	5.78418
26.29	5.77036
26.3	5.79536
26.31	5.80655
26.32	5.82234
26.33	5.82069
26.34	5.78582
26.35	5.76675
26.36	5.77201
26.37	5.84241
26.38	5.7651
26.39	5.78879
26.4	5.81872
26.41	5.82201
26.42	5.75424
26.43	5.78418
26.44	5.79964
26.45	5.81872
26.46	5.77629
26.47	5.77365
26.48	5.7924
26.49	5.79668
26.5	5.77365
26.51	5.8526
26.52	5.77859
26.53	5.79076
26.54	5.81346
26.55	5.8128
26.56	5.87958
26.57	5.82102
26.58	5.7753
26.59	5.8128
26.6	5.75885
26.61	5.76148
26.62	5.76148
26.63	5.74569
26.64	5.7674
26.65	5.75161
26.66	5.75819
26.67	5.75984
26.68	5.76609
26.69	5.81675
26.7	5.77661
26.71	5.82102
26.72	5.80721
26.73	5.79569
26.74	5.81115
26.75	5.79569
26.76	5.80885
26.77	5.78747
26.78	5.78582
26.79	5.75293
26.8	5.74602
26.81	5.80458
26.82	5.81872
26.83	5.79997
26.84	5.82464
26.85	5.83287
26.86	5.78385
26.87	5.80951
26.88	5.80227
26.89	5.823
26.9	5.81017
26.91	5.8151
26.92	5.78944
26.93	5.76773
26.94	5.78418
26.95	5.77563
26.96	5.76905
26.97	5.82464
26.98	5.83517
26.99	5.79865
27	5.74832
27.01	5.73681
27.02	5.75392
27.03	5.73582
27.04	5.78879
27.05	5.79273
27.06	5.77859
27.07	5.8105
27.08	5.79865
27.09	5.83385
27.1	5.80556
27.11	5.80227
27.12	5.82267
27.13	5.82464
27.14	5.8026
27.15	5.78319
27.16	5.79504
27.17	5.79438
27.18	5.81346
27.19	5.80852
27.2	5.79273
27.21	5.77069
27.22	5.78879
27.23	5.79372
27.24	5.82168
27.25	5.78089
27.26	5.7424
27.27	5.81872
27.28	5.79569
27.29	5.76642
27.3	5.75918
27.31	5.77036
27.32	5.7503
27.33	5.77069
27.34	5.77694
27.35	5.8049
27.36	5.78319
27.37	5.77332
27.38	5.83155
27.39	5.848
27.4	5.74931
27.41	5.76609
27.42	5.77661
27.43	5.80227
27.44	5.79372
27.45	5.76609
27.46	5.80227
27.47	5.80556
27.48	5.77727
27.49	5.81576
27.5	5.83484
27.51	5.80754
27.52	5.73845
27.53	5.77267
27.54	5.76313
27.55	5.78023
27.56	5.79043
27.57	5.81148
27.58	5.78484
27.59	5.80556
27.6	5.81905
27.61	5.79701
27.62	5.79405
27.63	5.73286
27.64	5.79109
27.65	5.76839
27.66	5.79207
27.67	5.82859
27.68	5.80425
27.69	5.79175
27.7	5.78188
27.71	5.83221
27.72	5.75392
27.73	5.75128
27.74	5.79109
27.75	5.79504
27.76	5.76938
27.77	5.77727
27.78	5.77892
27.79	5.74668
27.8	5.72859
27.81	5.74964
27.82	5.77431
27.83	5.80161
27.84	5.78681
27.85	5.83517
27.86	5.7753
27.87	5.76313
27.88	5.85293
27.89	5.81148
27.9	5.77694
27.91	5.75589
27.92	5.75819
27.93	5.79898
27.94	5.80556
27.95	5.76938
27.96	5.76017
27.97	5.75096
27.98	5.7901
27.99	5.76214
28	5.77694
28.01	5.80589
28.02	5.79372
28.03	5.80227
28.04	5.77036
28.05	5.75326
28.06	5.77661
28.07	5.77168
28.08	5.78582
28.09	5.80096
28.1	5.81543
28.11	5.76115
28.12	5.74536
28.13	5.75622
28.14	5.77661
28.15	5.78122
28.16	5.75852
28.17	5.78089
28.18	5.79175
28.19	5.75786
28.2	5.79273
28.21	5.79207
28.22	5.75392
28.23	5.75293
28.24	5.7674
28.25	5.78122
28.26	5.81576
28.27	5.80951
28.28	5.7776
28.29	5.8026
28.3	5.80293
28.31	5.78254
28.32	5.78879
28.33	5.82234
28.34	5.74306
28.35	5.76576
28.36	5.78517
28.37	5.78879
28.38	5.76346
28.39	5.76346
28.4	5.78385
28.41	5.75096
28.42	5.77332
28.43	5.7901
28.44	5.75885
28.45	5.79602
28.46	5.79701
28.47	5.81642
28.48	5.80194
28.49	5.78484
28.5	5.74865
28.51	5.7674
28.52	5.8151
28.53	5.81181
28.54	5.75523
28.55	5.79602
28.56	5.79833
28.57	5.79569
28.58	5.78517
28.59	5.76675
28.6	5.78911
28.61	5.81017
28.62	5.79405
28.63	5.80754
28.64	5.81839
28.65	5.76905
28.66	5.76609
28.67	5.75392
28.68	5.80425
28.69	5.79668
28.7	5.7628
28.71	5.76444
28.72	5.71773
28.73	5.74043
28.74	5.74602
28.75	5.71444
28.76	5.72464
28.77	5.76313
28.78	5.80622
28.79	5.76082
28.8	5.78451
28.81	5.74438
28.82	5.78418
28.83	5.74734
28.84	5.79668
28.85	5.79372
28.86	5.7651
28.87	5.79207
28.88	5.82925
28.89	5.77957
28.9	5.75786
28.91	5.75063
28.92	5.76082
28.93	5.76477
28.94	5.80951
28.95	5.75885
28.96	5.78418
28.97	5.81642
28.98	5.81905
28.99	5.78221
29	5.8174
29.01	5.7424
29.02	5.7651
29.03	5.79438
29.04	5.77629
29.05	5.76148
29.06	5.76411
29.07	5.76971
29.08	5.7855
29.09	5.8003
29.1	5.76773
29.11	5.78254
29.12	5.79306
29.13	5.80885
29.14	5.78221
29.15	5.76313
29.16	5.74931
29.17	5.73813
29.18	5.79438
29.19	5.77826
29.2	5.76938
29.21	5.77102
29.22	5.74734
29.23	5.8003
29.24	5.78188
29.25	5.773
29.26	5.74405
29.27	5.77431
29.28	5.75655
29.29	5.76576
29.3	5.73089
29.31	5.70984
29.32	5.74602
29.33	5.74471
29.34	5.77267
29.35	5.7503
29.36	5.75194
29.37	5.78056
29.38	5.82102
29.39	5.77694
29.4	5.78582
29.41	5.81444
29.42	5.81115
29.43	5.79931
29.44	5.7878
29.45	5.78319
29.46	5.75885
29.47	5.78221
29.48	5.79175
29.49	5.81938
29.5	5.79964
29.51	5.81412
29.52	5.76115
29.53	5.73977
29.54	5.78648
29.55	5.7799
29.56	5.7628
29.57	5.76642
29.58	5.7605
29.59	5.77661
29.6	5.7197
29.61	5.77332
29.62	5.78056
29.63	5.74964
29.64	5.75885
29.65	5.7526
29.66	5.7378
29.67	5.77069
29.68	5.78319
29.69	5.76313
29.7	5.77003
29.71	5.75951
29.72	5.78648
29.73	5.72957
29.74	5.7855
29.75	5.73418
29.76	5.7503
29.77	5.77464
29.78	5.78385
29.79	5.80359
29.8	5.79964
29.81	5.79997
29.82	5.75523
29.83	5.7026
29.84	5.76313
29.85	5.76313
29.86	5.77892
29.87	5.7322
29.88	5.74043
29.89	5.79076
29.9	5.76181
29.91	5.76971
29.92	5.77003
29.93	5.80194
29.94	5.77497
29.95	5.80786
29.96	5.7549
29.97	5.81181
29.98	5.77497
29.99	5.74767
30	5.75852
30.01	5.74832
30.02	5.74865
30.03	5.81642
30.04	5.7674
30.05	5.80063
30.06	5.77102
30.07	5.7878
30.08	5.82365
30.09	5.81477
30.1	5.8003
30.11	5.7674
30.12	5.77267
30.13	5.7424
30.14	5.78385
30.15	5.76675
30.16	5.74109
30.17	5.79602
30.18	5.76576
30.19	5.76247
30.2	5.81444
30.21	5.78418
30.22	5.80063
30.23	5.81477
30.24	5.76773
30.25	5.71806
30.26	5.78517
30.27	5.76181
30.28	5.8026
30.29	5.76806
30.3	5.76872
30.31	5.798
30.32	5.77892
30.33	5.73352
30.34	5.75819
30.35	5.77069
30.36	5.75523
30.37	5.76082
30.38	5.75424
30.39	5.7605
30.4	5.76477
30.41	5.76872
30.42	5.82629
30.43	5.79207
30.44	5.78944
30.45	5.82069
30.46	5.79076
30.47	5.71543
30.48	5.78681
30.49	5.76839
30.5	5.78681
30.51	5.80458
30.52	5.7776
30.53	5.77069
30.54	5.79273
30.55	5.76839
30.56	5.75359
30.57	5.80129
30.58	5.75688
30.59	5.74142
30.6	5.76675
30.61	5.76346
30.62	5.7651
30.63	5.77036
30.64	5.7855
30.65	5.81773
30.66	5.78714
30.67	5.74602
30.68	5.74701
30.69	5.77365
30.7	5.76214
30.71	5.78221
30.72	5.79668
30.73	5.773
30.74	5.798
30.75	5.77957
30.76	5.78286
30.77	5.76115
30.78	5.78286
30.79	5.83681
30.8	5.79438
30.81	5.80227
30.82	5.75523
30.83	5.76543
30.84	5.77267
30.85	5.74832
30.86	5.75688
30.87	5.77596
30.88	5.75852
30.89	5.74109
30.9	5.73911
30.91	5.80688
30.92	5.79767
30.93	5.76543
30.94	5.76444
30.95	5.75457
30.96	5.80655
30.97	5.79273
30.98	5.81708
30.99	5.84898
31	5.80556
31.01	5.74339
31.02	5.71707
31.03	5.74832
31.04	5.74471
31.05	5.75128
31.06	5.81148
31.07	5.77003
31.08	5.75359
31.09	5.72267
31.1	5.75424
31.11	5.75227
31.12	5.74931
31.13	5.79536
31.14	5.72036
31.15	5.77497
31.16	5.82727
31.17	5.81083
31.18	5.76971
31.19	5.77069
31.2	5.79931
31.21	5.75984
31.22	5.75721
31.23	5.76938
31.24	5.80786
31.25	5.7651
31.26	5.73813
31.27	5.7674
31.28	5.78911
31.29	5.77168
31.3	5.76214
31.31	5.73681
31.32	5.74997
31.33	5.83616
31.34	5.86806
31.35	5.80786
31.36	5.78813
31.37	5.7674
31.38	5.74109
31.39	5.77629
31.4	5.77234
31.41	5.78122
31.42	5.79865
31.43	5.75556
31.44	5.81148
31.45	5.77859
31.46	5.74405
31.47	5.77102
31.48	5.7549
31.49	5.7424
31.5	5.74142
31.51	5.73549
31.52	5.75359
31.53	5.78582
31.54	5.76313
31.55	5.81609
31.56	5.823
31.57	5.75161
31.58	5.75161
31.59	5.78023
31.6	5.77727
31.61	5.85787
31.62	5.80392
31.63	5.80425
31.64	5.78418
31.65	5.75457
31.66	5.73253
31.67	5.78418
31.68	5.8003
31.69	5.77398
31.7	5.78582
31.71	5.82201
31.72	5.79109
31.73	5.7799
31.74	5.77892
31.75	5.78089
31.76	5.8026
31.77	5.76773
31.78	5.76444
31.79	5.75786
31.8	5.72201
31.81	5.77629
31.82	5.7776
31.83	5.76115
31.84	5.74043
31.85	5.77201
31.86	5.74997
31.87	5.80523
31.88	5.80655
31.89	5.78977
31.9	5.7549
31.91	5.74602
31.92	5.76214
31.93	5.76017
31.94	5.78615
31.95	5.77365
31.96	5.76313
31.97	5.75721
31.98	5.77102
31.99	5.7855
32	5.74405
32.01	5.74668
32.02	5.73582
32.03	5.71576
32.04	5.78879
32.05	5.75819
32.06	5.76839
32.07	5.80425
32.08	5.76642
32.09	5.76346
32.1	5.75457
32.11	5.77234
32.12	5.73089
32.13	5.77102
32.14	5.78977
32.15	5.76806
32.16	5.76872
32.17	5.75852
32.18	5.77234
32.19	5.7549
32.2	5.76115
32.21	5.74471
32.22	5.78484
32.23	5.73056
32.24	5.75885
32.25	5.76082
32.26	5.79109
32.27	5.78813
32.28	5.83254
32.29	5.79668
32.3	5.77925
32.31	5.79635
32.32	5.79405
32.33	5.8049
32.34	5.78122
32.35	5.74076
32.36	5.773
32.37	5.73451
32.38	5.7651
32.39	5.76444
32.4	5.73188
32.41	5.75918
32.42	5.73813
32.43	5.73056
32.44	5.75523
32.45	5.77201
32.46	5.76905
32.47	5.73484
32.48	5.77431
32.49	5.72957
32.5	5.75523
32.51	5.80194
32.52	5.78977
32.53	5.72595
32.54	5.77694
32.55	5.73155
32.56	5.70326
32.57	5.76543
32.58	5.77497
32.59	5.75227
32.6	5.7322
32.61	5.72957
32.62	5.75688
32.63	5.76675
32.64	5.74734
32.65	5.7878
32.66	5.75885
32.67	5.75688
32.68	5.80754
32.69	5.74207
32.7	5.76707
32.71	5.75161
32.72	5.78517
32.73	5.798
32.74	5.74865
32.75	5.75918
32.76	5.73286
32.77	5.72793
32.78	5.78254
32.79	5.80425
32.8	5.76214
32.81	5.75885
32.82	5.78714
32.83	5.79833
32.84	5.73484
32.85	5.73813
32.86	5.72727
32.87	5.76839
32.88	5.7503
32.89	5.74602
32.9	5.74635
32.91	5.74471
32.92	5.74635
32.93	5.73747
32.94	5.70819
32.95	5.72234
32.96	5.74602
32.97	5.75951
32.98	5.78188
32.99	5.73878
33	5.76773
33.01	5.75951
33.02	5.7503
33.03	5.75721
33.04	5.74767
33.05	5.7878
33.06	5.75293
33.07	5.74832
33.08	5.70852
33.09	5.74043
33.1	5.74405
33.11	5.72332
33.12	5.72957
33.13	5.72826
33.14	5.71707
33.15	5.75227
33.16	5.78977
33.17	5.77234
33.18	5.7605
33.19	5.71543
33.2	5.71839
33.21	5.74503
33.22	5.72826
33.23	5.76642
33.24	5.79076
33.25	5.76477
33.26	5.76806
33.27	5.76938
33.28	5.78286
33.29	5.80227
33.3	5.80458
33.31	5.79076
33.32	5.78615
33.33	5.75326
33.34	5.75293
33.35	5.78879
33.36	5.74207
33.37	5.7322
33.38	5.76148
33.39	5.73089
33.4	5.72036
33.41	5.79372
33.42	5.82102
33.43	5.74931
33.44	5.7401
33.45	5.773
33.46	5.7503
33.47	5.78846
33.48	5.75424
33.49	5.77135
33.5	5.75885
33.51	5.7174
33.52	5.72102
33.53	5.77332
33.54	5.72464
33.55	5.70161
33.56	5.77859
33.57	5.74306
33.58	5.73878
33.59	5.73484
33.6	5.76971
33.61	5.73418
33.62	5.79207
33.63	5.77234
33.64	5.75523
33.65	5.76543
33.66	5.77398
33.67	5.77365
33.68	5.77201
33.69	5.72464
33.7	5.72365
33.71	5.81083
33.72	5.81214
33.73	5.80063
33.74	5.74602
33.75	5.78648
33.76	5.76971
33.77	5.74471
33.78	5.71609
33.79	5.72793
33.8	5.75063
33.81	5.7503
33.82	5.71345
33.83	5.77069
33.84	5.78879
33.85	5.77267
33.86	5.77168
33.87	5.73549
33.88	5.72563
33.89	5.74339
33.9	5.75063
33.91	5.78846
33.92	5.79504
33.93	5.75359
33.94	5.76411
33.95	5.74306
33.96	5.75523
33.97	5.79767
33.98	5.76905
33.99	5.79142
34	5.7901
34.01	5.77892
34.02	5.71313
34.03	5.74832
34.04	5.81806
34.05	5.7878
34.06	5.80754
34.07	5.76707
34.08	5.76148
34.09	5.73911
34.1	5.80458
34.11	5.73155
34.12	5.77201
34.13	5.76017
34.14	5.80063
34.15	5.75063
34.16	5.72694
34.17	5.74306
34.18	5.75556
34.19	5.76346
34.2	5.77957
34.21	5.73845
34.22	5.77596
34.23	5.72431
34.24	5.71411
34.25	5.69207
34.26	5.7253
34.27	5.74635
34.28	5.72595
34.29	5.74832
34.3	5.71773
34.31	5.74701
34.32	5.773
34.33	5.74734
34.34	5.7322
34.35	5.73845
34.36	5.7378
34.37	5.75096
34.38	5.78286
34.39	5.76313
34.4	5.77102
34.41	5.71543
34.42	5.7003
34.43	5.71247
34.44	5.75457
34.45	5.79142
34.46	5.75096
34.47	5.77793
34.48	5.74767
34.49	5.77661
34.5	5.70589
34.51	5.72497
34.52	5.73582
34.53	5.76806
34.54	5.75655
34.55	5.77793
34.56	5.75852
34.57	5.79536
34.58	5.76905
34.59	5.75424
34.6	5.76411
34.61	5.71247
34.62	5.75786
34.63	5.74931
34.64	5.77859
34.65	5.76313
34.66	5.76411
34.67	5.69931
34.68	5.72497
34.69	5.72727
34.7	5.79175
34.71	5.72892
34.72	5.72924
34.73	5.7026
34.74	5.76017
34.75	5.77398
34.76	5.7776
34.77	5.79504
34.78	5.78681
34.79	5.75161
34.8	5.80852
34.81	5.7901
34.82	5.77135
34.83	5.70523
34.84	5.75128
34.85	5.75721
34.86	5.74799
34.87	5.73385
34.88	5.75128
34.89	5.74438
34.9	5.78089
34.91	5.77859
34.92	5.74503
34.93	5.74142
34.94	5.74701
34.95	5.75918
34.96	5.79306
34.97	5.80523
34.98	5.75753
34.99	5.77431
35	5.75786
35.01	5.74076
35.02	5.73188
35.03	5.73352
35.04	5.72826
35.05	5.73648
35.06	5.72563
35.07	5.75655
35.08	5.76148
35.09	5.73582
35.1	5.71839
35.11	5.72036
35.12	5.73023
35.13	5.71905
35.14	5.7322
35.15	5.72168
35.16	5.7549
35.17	5.7855
35.18	5.77727
35.19	5.71148
35.2	5.76115
35.21	5.77135
35.22	5.74536
35.23	5.75655
35.24	5.7628
35.25	5.76806
35.26	5.74174
35.27	5.81905
35.28	5.77431
35.29	5.74865
35.3	5.80885
35.31	5.79536
35.32	5.80326
35.33	5.77629
35.34	5.76148
35.35	5.79438
35.36	5.8003
35.37	5.74438
35.38	5.7378
35.39	5.76115
35.4	5.76378
35.41	5.77925
35.42	5.7651
35.43	5.79602
35.44	5.74799
35.45	5.71411
35.46	5.74865
35.47	5.71641
35.48	5.75721
35.49	5.79207
35.5	5.81576
35.51	5.74767
35.52	5.76839
35.53	5.75326
35.54	5.74471
35.55	5.77497
35.56	5.72694
35.57	5.77003
35.58	5.79339
35.59	5.79076
35.6	5.72957
35.61	5.76444
35.62	5.78352
35.63	5.75161
35.64	5.75885
35.65	5.74964
35.66	5.77629
35.67	5.76247
35.68	5.76444
35.69	5.76938
35.7	5.72234
35.71	5.7753
35.72	5.79865
35.73	5.76938
35.74	5.76444
35.75	5.78089
35.76	5.7026
35.77	5.76082
35.78	5.75556
35.79	5.75326
35.8	5.81839
35.81	5.74372
35.82	5.73484
35.83	5.75984
35.84	5.73418
35.85	5.76247
35.86	5.71773
35.87	5.7549
35.88	5.75819
35.89	5.78056
35.9	5.78319
35.91	5.79273
35.92	5.78418
35.93	5.73385
35.94	5.77135
35.95	5.73944
35.96	5.74405
35.97	5.76773
35.98	5.72036
35.99	5.74964
36	5.76082
36.01	5.75622
36.02	5.75852
36.03	5.71938
36.04	5.77398
36.05	5.73615
36.06	5.73517
36.07	5.75293
36.08	5.74832
36.09	5.73451
36.1	5.70128
36.11	5.74734
36.12	5.76773
36.13	5.74273
36.14	5.71247
36.15	5.74997
36.16	5.75326
36.17	5.73352
36.18	5.77694
36.19	5.78089
36.2	5.72826
36.21	5.75293
36.22	5.7128
36.23	5.73352
36.24	5.74569
36.25	5.72793
36.26	5.73451
36.27	5.75227
36.28	5.6799
36.29	5.6947
36.3	5.7253
36.31	5.76313
36.32	5.77925
36.33	5.74372
36.34	5.73648
36.35	5.76346
36.36	5.73451
36.37	5.72497
36.38	5.76313
36.39	5.74536
36.4	5.76642
36.41	5.73977
36.42	5.73188
36.43	5.76839
36.44	5.74964
36.45	5.75063
36.46	5.74602
36.47	5.75655
36.48	5.76411
36.49	5.7753
36.5	5.74602
36.51	5.74043
36.52	5.76017
36.53	5.75326
36.54	5.73813
36.55	5.75951
36.56	5.77793
36.57	5.79635
36.58	5.7674
36.59	5.72201
36.6	5.7503
36.61	5.73188
36.62	5.76313
36.63	5.76576
36.64	5.73056
36.65	5.6822
36.66	5.71049
36.67	5.75359
36.68	5.75359
36.69	5.75786
36.7	5.76543
36.71	5.798
36.72	5.77003
36.73	5.71016
36.74	5.74405
36.75	5.77892
36.76	5.75885
36.77	5.75063
36.78	5.78944
36.79	5.7753
36.8	5.72332
36.81	5.71214
36.82	5.65753
36.83	5.73714
36.84	5.74668
36.85	5.74865
36.86	5.78944
36.87	5.78155
36.88	5.76773
36.89	5.74109
36.9	5.76543
36.91	5.73878
36.92	5.70523
36.93	5.75359
36.94	5.75786
36.95	5.72727
36.96	5.76346
36.97	5.76346
36.98	5.77563
36.99	5.75523
37	5.79076
37.01	5.76214
37.02	5.7503
37.03	5.7299
37.04	5.71082
37.05	5.77135
37.06	5.76444
37.07	5.7276
37.08	5.76148
37.09	5.77398
37.1	5.76017
37.11	5.73582
37.12	5.74142
37.13	5.78813
37.14	5.75128
37.15	5.76839
37.16	5.73648
37.17	5.74602
37.18	5.75721
37.19	5.76642
37.2	5.7526
37.21	5.7776
37.22	5.74832
37.23	5.77168
37.24	5.73878
37.25	5.75096
37.26	5.7924
37.27	5.79372
37.28	5.77629
37.29	5.79273
37.3	5.72003
37.31	5.77563
37.32	5.7549
37.33	5.76543
37.34	5.74471
37.35	5.73944
37.36	5.74109
37.37	5.76477
37.38	5.76148
37.39	5.77135
37.4	5.78089
37.41	5.79076
37.42	5.75819
37.43	5.7651
37.44	5.76642
37.45	5.76707
37.46	5.75786
37.47	5.76806
37.48	5.71214
37.49	5.77332
37.5	5.74964
37.51	5.80326
37.52	5.73813
37.53	5.69668
37.54	5.69174
37.55	5.76148
37.56	5.74174
37.57	5.74997
37.58	5.75523
37.59	5.75753
37.6	5.73813
37.61	5.74832
37.62	5.79372
37.63	5.81346
37.64	5.76082
37.65	5.73418
37.66	5.73155
37.67	5.70885
37.68	5.72957
37.69	5.74306
37.7	5.71872
37.71	5.773
37.72	5.76444
37.73	5.76247
37.74	5.74701
37.75	5.72168
37.76	5.7503
37.77	5.79865
37.78	5.76313
37.79	5.72497
37.8	5.74306
37.81	5.74602
37.82	5.77267
37.83	5.75359
37.84	5.72694
37.85	5.68747
37.86	5.69273
37.87	5.71115
37.88	5.72365
37.89	5.78056
37.9	5.77003
37.91	5.7424
37.92	5.72201
37.93	5.76214
37.94	5.75293
37.95	5.72727
37.96	5.75852
37.97	5.7174
37.98	5.76378
37.99	5.7799
38	5.74668
38.01	5.75161
38.02	5.75852
38.03	5.69766
38.04	5.7503
38.05	5.79273
38.06	5.78188
38.07	5.72628
38.08	5.72234
38.09	5.81346
38.1	5.7776
38.11	5.77003
38.12	5.77168
38.13	5.74109
38.14	5.69865
38.15	5.70589
38.16	5.70622
38.17	5.75918
38.18	5.74536
38.19	5.75096
38.2	5.72497
38.21	5.74569
38.22	5.77694
38.23	5.76148
38.24	5.75786
38.25	5.74174
38.26	5.77431
38.27	5.71905
38.28	5.77497
38.29	5.77859
38.3	5.74931
38.31	5.78846
38.32	5.75885
38.33	5.77234
38.34	5.80556
38.35	5.71641
38.36	5.73845
38.37	5.72628
38.38	5.75655
38.39	5.74405
38.4	5.7605
38.41	5.74799
38.42	5.73911
38.43	5.72431
38.44	5.71477
38.45	5.70753
38.46	5.72628
38.47	5.76773
38.48	5.73615
38.49	5.78582
38.5	5.76543
38.51	5.73451
38.52	5.74405
38.53	5.73089
38.54	5.75918
38.55	5.74767
38.56	5.73056
38.57	5.77596
38.58	5.74767
38.59	5.79668
38.6	5.74339
38.61	5.73681
38.62	5.7526
38.63	5.69997
38.64	5.69569
38.65	5.69964
38.66	5.73813
38.67	5.74964
38.68	5.70622
38.69	5.72661
38.7	5.7253
38.71	5.74569
38.72	5.76938
38.73	5.7776
38.74	5.77003
38.75	5.77332
38.76	5.77859
38.77	5.80392
38.78	5.7901
38.79	5.72859
38.8	5.70457
38.81	5.73418
38.82	5.73747
38.83	5.78352
38.84	5.69964
38.85	5.72168
38.86	5.76642
38.87	5.73813
38.88	5.71773
38.89	5.71411
38.9	5.70326
38.91	5.75655
38.92	5.75753
38.93	5.77365
38.94	5.73122
38.95	5.75655
38.96	5.77629
38.97	5.78155
38.98	5.75227
38.99	5.7151
39	5.72595
39.01	5.73977
39.02	5.79207
39.03	5.75523
39.04	5.73845
39.05	5.72201
39.06	5.75096
39.07	5.73023
39.08	5.75688
39.09	5.7753
39.1	5.77003
39.11	5.72332
39.12	5.7549
39.13	5.76707
39.14	5.75161
39.15	5.78254
39.16	5.77267
39.17	5.73155
39.18	5.70523
39.19	5.75951
39.2	5.76247
39.21	5.7878
39.22	5.7503
39.23	5.75721
39.24	5.81214
39.25	5.77596
39.26	5.77398
39.27	5.79306
39.28	5.72595
39.29	5.77003
39.3	5.77365
39.31	5.79734
39.32	5.77629
39.33	5.74964
39.34	5.7026
39.35	5.76378
39.36	5.72957
39.37	5.73484
39.38	5.74602
39.39	5.73385
39.4	5.74701
39.41	5.75063
39.42	5.73023
39.43	5.73286
39.44	5.7605
39.45	5.71181
39.46	5.7651
39.47	5.74931
39.48	5.75096
39.49	5.73747
39.5	5.76411
39.51	5.76444
39.52	5.76872
39.53	5.75063
39.54	5.75293
39.55	5.72957
39.56	5.72957
39.57	5.75951
39.58	5.75359
39.59	5.73977
39.6	5.75457
39.61	5.78484
39.62	5.79569
39.63	5.77793
39.64	5.7401
39.65	5.71839
39.66	5.73352
39.67	5.78944
39.68	5.77168
39.69	5.74043
39.7	5.74964
39.71	5.78188
39.72	5.76378
39.73	5.72595
39.74	5.76181
39.75	5.74043
39.76	5.77234
39.77	5.74438
39.78	5.68056
39.79	5.76773
39.8	5.74306
39.81	5.79273
39.82	5.72826
39.83	5.73714
39.84	5.75786
39.85	5.72924
39.86	5.72497
39.87	5.73977
39.88	5.75852
39.89	5.71148
39.9	5.72628
39.91	5.72398
39.92	5.67826
39.93	5.73122
39.94	5.75786
39.95	5.7322
39.96	5.74109
39.97	5.7401
39.98	5.74142
39.99	5.7424
40	5.74767
40.01	5.75688
40.02	5.74997
40.03	5.76905
40.04	5.76017
40.05	5.74536
40.06	5.73122
40.07	5.7503
40.08	5.72201
40.09	5.76346
40.1	5.76543
40.11	5.73813
40.12	5.7855
40.13	5.74043
40.14	5.69536
40.15	5.71905
40.16	5.75819
40.17	5.75128
40.18	5.75194
40.19	5.72694
40.2	5.66049
40.21	5.72727
40.22	5.76346
40.23	5.75951
40.24	5.75359
40.25	5.75918
40.26	5.72267
40.27	5.70786
40.28	5.73977
40.29	5.76806
40.3	5.76247
40.31	5.76181
40.32	5.74043
40.33	5.7378
40.34	5.71839
40.35	5.74668
40.36	5.76971
40.37	5.74471
40.38	5.70128
40.39	5.70655
40.4	5.7253
40.41	5.73714
40.42	5.74799
40.43	5.76576
40.44	5.74997
40.45	5.77003
40.46	5.77793
40.47	5.72957
40.48	5.69964
40.49	5.73648
40.5	5.73878
40.51	5.73188
40.52	5.77168
40.53	5.74503
40.54	5.71411
40.55	5.74799
40.56	5.69931
40.57	5.74503
40.58	5.71444
40.59	5.72859
40.6	5.7878
40.61	5.74339
40.62	5.73845
40.63	5.74767
40.64	5.75721
40.65	5.75951
40.66	5.74602
40.67	5.74865
40.68	5.75918
40.69	5.72563
40.7	5.73747
40.71	5.80326
40.72	5.70556
40.73	5.73023
40.74	5.73845
40.75	5.7878
40.76	5.76675
40.77	5.74701
40.78	5.76082
40.79	5.72201
40.8	5.71148
40.81	5.74602
40.82	5.74964
40.83	5.75194
40.84	5.76905
40.85	5.74174
40.86	5.74503
40.87	5.7753
40.88	5.75293
40.89	5.73747
40.9	5.75063
40.91	5.74734
40.92	5.76181
40.93	5.74997
40.94	5.74635
40.95	5.73122
40.96	5.76938
40.97	5.76346
40.98	5.75556
40.99	5.75227
41	5.73714
41.01	5.75096
41.02	5.7503
41.03	5.7628
41.04	5.74635
41.05	5.74438
41.06	5.76707
41.07	5.77661
41.08	5.75161
41.09	5.75096
41.1	5.73681
41.11	5.76378
41.12	5.76444
41.13	5.70391
41.14	5.74635
41.15	5.74931
41.16	5.72299
41.17	5.72069
41.18	5.69174
41.19	5.73944
41.2	5.71214
41.21	5.72365
41.22	5.74471
41.23	5.74438
41.24	5.74438
41.25	5.74865
41.26	5.75589
41.27	5.76576
41.28	5.76346
41.29	5.74569
41.3	5.7674
41.31	5.74635
41.32	5.78122
41.33	5.73977
41.34	5.74898
41.35	5.76247
41.36	5.71773
41.37	5.70885
41.38	5.7026
41.39	5.72003
41.4	5.77267
41.41	5.72924
41.42	5.73549
41.43	5.75984
41.44	5.73517
41.45	5.74273
41.46	5.74964
41.47	5.74306
41.48	5.73418
41.49	5.76115
41.5	5.7526
41.51	5.73056
41.52	5.69503
41.53	5.7378
41.54	5.76773
41.55	5.7651
41.56	5.75852
41.57	5.72365
41.58	5.74273
41.59	5.7026
41.6	5.75096
41.61	5.74536
41.62	5.68418
41.63	5.70161
41.64	5.79898
41.65	5.77793
41.66	5.76017
41.67	5.80194
41.68	5.77563
41.69	5.73977
41.7	5.77859
41.71	5.74569
41.72	5.73352
41.73	5.77629
41.74	5.74701
41.75	5.7503
41.76	5.73188
41.77	5.7174
41.78	5.70457
41.79	5.71411
41.8	5.73714
41.81	5.76181
41.82	5.7651
41.83	5.75622
41.84	5.74503
41.85	5.75556
41.86	5.70424
41.87	5.72826
41.88	5.72793
41.89	5.74207
41.9	5.72234
41.91	5.70918
41.92	5.73451
41.93	5.73418
41.94	5.73319
41.95	5.76707
41.96	5.76905
41.97	5.73813
41.98	5.76905
41.99	5.74339
42	5.74471
42.01	5.7526
42.02	5.71444
42.03	5.77629
42.04	5.7276
42.05	5.73155
42.06	5.72957
42.07	5.75885
42.08	5.76444
42.09	5.73418
42.1	5.71872
42.11	5.72694
42.12	5.74438
42.13	5.75392
42.14	5.76905
42.15	5.74832
42.16	5.72661
42.17	5.72727
42.18	5.74799
42.19	5.75885
42.2	5.70622
42.21	5.72299
42.22	5.72431
42.23	5.76576
42.24	5.77365
42.25	5.78681
42.26	5.75655
42.27	5.70885
42.28	5.69273
42.29	5.75721
42.3	5.75523
42.31	5.72628
42.32	5.78122
42.33	5.74076
42.34	5.77365
42.35	5.71345
42.36	5.71773
42.37	5.773
42.38	5.74602
42.39	5.67595
42.4	5.70161
42.41	5.75359
42.42	5.72464
42.43	5.71543
42.44	5.7855
42.45	5.76543
42.46	5.73286
42.47	5.73911
42.48	5.71313
42.49	5.73549
42.5	5.72431
42.51	5.70984
42.52	5.70326
42.53	5.68812
42.54	5.71938
42.55	5.75721
42.56	5.78023
42.57	5.73056
42.58	5.70457
42.59	5.74668
42.6	5.73845
42.61	5.73845
42.62	5.73286
42.63	5.74865
42.64	5.78352
42.65	5.77332
42.66	5.80523
42.67	5.7605
42.68	5.80589
42.69	5.75786
42.7	5.74503
42.71	5.71181
42.72	5.71905
42.73	5.78911
42.74	5.78615
42.75	5.71313
42.76	5.75227
42.77	5.76905
42.78	5.75622
42.79	5.73648
42.8	5.72595
42.81	5.74471
42.82	5.74174
42.83	5.77234
42.84	5.76576
42.85	5.78879
42.86	5.76214
42.87	5.70095
42.88	5.73911
42.89	5.77497
42.9	5.81806
42.91	5.78451
42.92	5.7378
42.93	5.73845
42.94	5.71016
42.95	5.76444
42.96	5.76148
42.97	5.72497
42.98	5.74832
42.99	5.73352
43	5.76543
43.01	5.78681
43.02	5.76477
43.03	5.77957
43.04	5.75194
43.05	5.73352
43.06	5.70753
43.07	5.71411
43.08	5.75852
43.09	5.77036
43.1	5.70852
43.11	5.7674
43.12	5.72003
43.13	5.73878
43.14	5.75424
43.15	5.81379
43.16	5.73517
43.17	5.79109
43.18	5.77892
43.19	5.75227
43.2	5.7253
43.21	5.74471
43.22	5.74372
43.23	5.74898
43.24	5.75457
43.25	5.74569
43.26	5.74701
43.27	5.69437
43.28	5.74964
43.29	5.76707
43.3	5.75128
43.31	5.74273
43.32	5.79668
43.33	5.75523
43.34	5.76675
43.35	5.74207
43.36	5.74076
43.37	5.7322
43.38	5.71674
43.39	5.75457
43.4	5.70786
43.41	5.72003
43.42	5.74865
43.43	5.70885
43.44	5.73747
43.45	5.74536
43.46	5.75721
43.47	5.73549
43.48	5.73484
43.49	5.74109
43.5	5.7128
43.51	5.74043
43.52	5.78254
43.53	5.78714
43.54	5.81675
43.55	5.72563
43.56	5.77234
43.57	5.73352
43.58	5.68319
43.59	5.75852
43.6	5.73286
43.61	5.72365
43.62	5.72135
43.63	5.71674
43.64	5.71576
43.65	5.68582
43.66	5.71576
43.67	5.76905
43.68	5.75457
43.69	5.72793
43.7	5.74405
43.71	5.75424
43.72	5.7049
43.73	5.73089
43.74	5.75852
43.75	5.73878
43.76	5.72069
43.77	5.72727
43.78	5.77003
43.79	5.71378
43.8	5.75096
43.81	5.78122
43.82	5.77793
43.83	5.69503
43.84	5.75688
43.85	5.73122
43.86	5.71707
43.87	5.73977
43.88	5.75918
43.89	5.71049
43.9	5.69076
43.91	5.70786
43.92	5.75984
43.93	5.75063
43.94	5.75063
43.95	5.71115
43.96	5.74405
43.97	5.798
43.98	5.773
43.99	5.72201
44	5.68319
44.01	5.75753
44.02	5.74339
44.03	5.72201
44.04	5.75194
44.05	5.73681
44.06	5.76477
44.07	5.75359
44.08	5.74438
44.09	5.72497
44.1	5.73648
44.11	5.73023
44.12	5.71806
44.13	5.7197
44.14	5.73517
44.15	5.73155
44.16	5.76411
44.17	5.73451
44.18	5.7526
44.19	5.7549
44.2	5.74306
44.21	5.73813
44.22	5.78221
44.23	5.7299
44.24	5.71543
44.25	5.7276
44.26	5.70326
44.27	5.7174
44.28	5.73056
44.29	5.71938
44.3	5.7799
44.31	5.73549
44.32	5.74273
44.33	5.73484
44.34	5.74668
44.35	5.69701
44.36	5.71707
44.37	5.73484
44.38	5.75523
44.39	5.76313
44.4	5.76411
44.41	5.6924
44.42	5.72431
44.43	5.72267
44.44	5.70227
44.45	5.77892
44.46	5.76148
44.47	5.70819
44.48	5.71082
44.49	5.73056
44.5	5.70852
44.51	5.7628
44.52	5.72628
44.53	5.74898
44.54	5.71773
44.55	5.74536
44.56	5.73977
44.57	5.73089
44.58	5.72892
44.59	5.71115
44.6	5.74767
44.61	5.78023
44.62	5.70852
44.63	5.74471
44.64	5.7901
44.65	5.73813
44.66	5.77892
44.67	5.77727
44.68	5.78122
44.69	5.77431
44.7	5.67924
44.71	5.73681
44.72	5.77102
44.73	5.69865
44.74	5.75096
44.75	5.75457
44.76	5.71247
44.77	5.74339
44.78	5.75096
44.79	5.71247
44.8	5.7401
44.81	5.73253
44.82	5.73418
44.83	5.74043
44.84	5.7401
44.85	5.74931
44.86	5.75918
44.87	5.75589
44.88	5.74339
44.89	5.73549
44.9	5.71411
44.91	5.69701
44.92	5.7049
44.93	5.75556
44.94	5.73648
44.95	5.77332
44.96	5.7605
44.97	5.73582
44.98	5.72694
44.99	5.71313
45	5.75457
45.01	5.74076
45.02	5.72661
45.03	5.70885
45.04	5.72859
45.05	5.76115
45.06	5.76477
45.07	5.74536
45.08	5.75786
45.09	5.73813
45.1	5.68911
45.11	5.72661
45.12	5.76609
45.13	5.71378
45.14	5.71181
45.15	5.70918
45.16	5.7276
45.17	5.73845
45.18	5.75128
45.19	5.72267
45.2	5.72267
45.21	5.77168
45.22	5.74109
45.23	5.73648
45.24	5.73352
45.25	5.77234
45.26	5.75128
45.27	5.73977
45.28	5.77826
45.29	5.71806
45.3	5.72431
45.31	5.74931
45.32	5.74438
45.33	5.76609
45.34	5.74569
45.35	5.72036
45.36	5.70161
45.37	5.76576
45.38	5.76675
45.39	5.72267
45.4	5.76806
45.41	5.77003
45.42	5.73352
45.43	5.78286
45.44	5.74043
45.45	5.73451
45.46	5.74339
45.47	5.70622
45.48	5.76609
45.49	5.79175
45.5	5.78023
45.51	5.71148
45.52	5.71411
45.53	5.67694
45.54	5.76806
45.55	5.76609
45.56	5.76872
45.57	5.7526
45.58	5.76017
45.59	5.69898
45.6	5.68155
45.61	5.72398
45.62	5.77069
45.63	5.75227
45.64	5.78484
45.65	5.76773
45.66	5.78714
45.67	5.69734
45.68	5.75194
45.69	5.73813
45.7	5.76247
45.71	5.76082
45.72	5.69766
45.73	5.73977
45.74	5.72924
45.75	5.72003
45.76	5.73089
45.77	5.70984
45.78	5.72299
45.79	5.71247
45.8	5.72595
45.81	5.73451
45.82	5.79273
45.83	5.73582
45.84	5.7072
45.85	5.71082
45.86	5.74471
45.87	5.74471
45.88	5.72464
45.89	5.71609
45.9	5.70753
45.91	5.73681
45.92	5.73089
45.93	5.72168
45.94	5.6924
45.95	5.71313
45.96	5.78846
45.97	5.75918
45.98	5.7503
45.99	5.73517
46	5.71148
46.01	5.74174
46.02	5.7151
46.03	5.72661
46.04	5.74273
46.05	5.73911
46.06	5.75457
46.07	5.70819
46.08	5.75424
46.09	5.76214
46.1	5.72069
46.11	5.74142
46.12	5.71576
46.13	5.71148
46.14	5.7503
46.15	5.74536
46.16	5.73385
46.17	5.73944
46.18	5.77563
46.19	5.77464
46.2	5.76609
46.21	5.76346
46.22	5.75918
46.23	5.76806
46.24	5.71806
46.25	5.71411
46.26	5.72365
46.27	5.74569
46.28	5.72595
46.29	5.75457
46.3	5.76346
46.31	5.74536
46.32	5.74142
46.33	5.72365
46.34	5.75753
46.35	5.76806
46.36	5.72135
46.37	5.71345
46.38	5.70161
46.39	5.72497
46.4	5.74372
46.41	5.71444
46.42	5.73648
46.43	5.7174
46.44	5.71313
46.45	5.74109
46.46	5.73253
46.47	5.72892
46.48	5.7503
46.49	5.76806
46.5	5.76313
46.51	5.74174
46.52	5.74964
46.53	5.75984
46.54	5.70655
46.55	5.73089
46.56	5.7401
46.57	5.72892
46.58	5.75688
46.59	5.71543
46.6	5.71609
46.61	5.7253
46.62	5.72299
46.63	5.77464
46.64	5.7628
46.65	5.72892
46.66	5.7253
46.67	5.72069
46.68	5.78615
46.69	5.71641
46.7	5.74701
46.71	5.74865
46.72	5.74865
46.73	5.70457
46.74	5.74832
46.75	5.74734
46.76	5.70852
46.77	5.73286
46.78	5.73878
46.79	5.7651
46.8	5.74043
46.81	5.75852
46.82	5.72102
46.83	5.72661
46.84	5.75392
46.85	5.73286
46.86	5.71609
46.87	5.66312
46.88	5.66247
46.89	5.72135
46.9	5.70852
46.91	5.69964
46.92	5.74569
46.93	5.73582
46.94	5.72793
46.95	5.75359
46.96	5.75951
46.97	5.77234
46.98	5.74898
46.99	5.69997
47	5.73845
47.01	5.7605
47.02	5.67628
47.03	5.67102
47.04	5.73253
47.05	5.7378
47.06	5.76148
47.07	5.76905
47.08	5.73845
47.09	5.75918
47.1	5.67694
47.11	5.74635
47.12	5.71148
47.13	5.70852
47.14	5.74405
47.15	5.74109
47.16	5.74372
47.17	5.73484
47.18	5.7322
47.19	5.79043
47.2	5.76115
47.21	5.73911
47.22	5.72628
47.23	5.68352
47.24	5.74471
47.25	5.74799
47.26	5.72661
47.27	5.72299
47.28	5.71839
47.29	5.72102
47.3	5.70819
47.31	5.74767
47.32	5.7674
47.33	5.76707
47.34	5.75622
47.35	5.7299
47.36	5.71378
47.37	5.71872
47.38	5.74043
47.39	5.77398
47.4	5.74997
47.41	5.73352
47.42	5.73253
47.43	5.72332
47.44	5.74503
47.45	5.73549
47.46	5.73977
47.47	5.73845
47.48	5.76642
47.49	5.7753
47.5	5.71444
47.51	5.70194
47.52	5.69701
47.53	5.71313
47.54	5.70161
47.55	5.73517
47.56	5.76115
47.57	5.72201
47.58	5.74174
47.59	5.77168
47.6	5.76346
47.61	5.71049
47.62	5.73352
47.63	5.70194
47.64	5.73056
47.65	5.74767
47.66	5.78385
47.67	5.72563
47.68	5.75721
47.69	5.76247
47.7	5.7651
47.71	5.72267
47.72	5.70556
47.73	5.68714
47.74	5.73056
47.75	5.69832
47.76	5.75655
47.77	5.77661
47.78	5.72267
47.79	5.72003
47.8	5.72431
47.81	5.75063
47.82	5.76872
47.83	5.76082
47.84	5.72168
47.85	5.76872
47.86	5.78385
47.87	5.74109
47.88	5.73714
47.89	5.73977
47.9	5.78023
47.91	5.79668
47.92	5.74997
47.93	5.71115
47.94	5.68878
47.95	5.76148
47.96	5.75096
47.97	5.75392
47.98	5.74207
47.99	5.72102
48	5.67398
48.01	5.75819
48.02	5.74339
48.03	5.72168
48.04	5.74471
48.05	5.71181
48.06	5.7197
48.07	5.78582
48.08	5.73648
48.09	5.74174
48.1	5.75951
48.11	5.72069
48.12	5.71576
48.13	5.69701
48.14	5.72464
48.15	5.75885
48.16	5.7174
48.17	5.69701
48.18	5.71872
48.19	5.75819
48.2	5.70984
48.21	5.71049
48.22	5.75556
48.23	5.75096
48.24	5.69931
48.25	5.77925
48.26	5.72826
48.27	5.73319
48.28	5.72892
48.29	5.73056
48.3	5.70359
48.31	5.7026
48.32	5.70819
48.33	5.71707
48.34	5.70359
48.35	5.74405
48.36	5.74043
48.37	5.76642
48.38	5.74405
48.39	5.7549
48.4	5.75819
48.41	5.74569
48.42	5.75918
48.43	5.72168
48.44	5.70095
48.45	5.72332
48.46	5.74964
48.47	5.74438
48.48	5.71543
48.49	5.74767
48.5	5.73911
48.51	5.72826
48.52	5.67201
48.53	5.71839
48.54	5.73615
48.55	5.71444
48.56	5.69898
48.57	5.75194
48.58	5.74076
48.59	5.72036
48.6	5.75161
48.61	5.75063
48.62	5.73615
48.63	5.74931
48.64	5.75457
48.65	5.73418
48.66	5.74207
48.67	5.72201
48.68	5.70885
48.69	5.73911
48.7	5.74569
48.71	5.72497
48.72	5.74569
48.73	5.70589
48.74	5.74635
48.75	5.73385
48.76	5.75721
48.77	5.75424
48.78	5.74931
48.79	5.6924
48.8	5.68451
48.81	5.78944
48.82	5.72957
48.83	5.74273
48.84	5.75622
48.85	5.75457
48.86	5.76444
48.87	5.72135
48.88	5.75655
48.89	5.78122
48.9	5.7526
48.91	5.69931
48.92	5.69372
48.93	5.73714
48.94	5.75326
48.95	5.69602
48.96	5.7174
48.97	5.77398
48.98	5.77661
48.99	5.73944
49	5.75622
49.01	5.68878
49.02	5.72332
49.03	5.73286
49.04	5.7322
49.05	5.79635
49.06	5.75326
49.07	5.7378
49.08	5.72924
49.09	5.73582
49.1	5.73155
49.11	5.71082
49.12	5.72267
49.13	5.73681
49.14	5.70523
49.15	5.7072
49.16	5.73155
49.17	5.72464
49.18	5.70556
49.19	5.74471
49.2	5.71641
49.21	5.75194
49.22	5.71247
49.23	5.75359
49.24	5.74767
49.25	5.69372
49.26	5.73089
49.27	5.72793
49.28	5.7253
49.29	5.73089
49.3	5.77694
49.31	5.76411
49.32	5.74142
49.33	5.76181
49.34	5.74898
49.35	5.74701
49.36	5.74964
49.37	5.81148
49.38	5.73056
49.39	5.7253
49.4	5.73878
49.41	5.74569
49.42	5.72793
49.43	5.72826
49.44	5.7526
49.45	5.72661
49.46	5.66641
49.47	5.72793
49.48	5.73155
49.49	5.69898
49.5	5.6947
49.51	5.72793
49.52	5.75359
49.53	5.68187
49.54	5.74701
49.55	5.74438
49.56	5.69043
49.57	5.71707
49.58	5.74701
49.59	5.74405
49.6	5.70424
49.61	5.73319
49.62	5.76214
49.63	5.69832
49.64	5.69931
49.65	5.74832
49.66	5.68122
49.67	5.66543
49.68	5.7322
49.69	5.7197
49.7	5.6776
49.71	5.70556
49.72	5.79471
49.73	5.74339
49.74	5.71411
49.75	5.70819
49.76	5.73911
49.77	5.75293
49.78	5.70786
49.79	5.70128
49.8	5.73188
49.81	5.76017
49.82	5.74043
49.83	5.74799
49.84	5.74602
49.85	5.72036
49.86	5.75885
49.87	5.72234
49.88	5.72793
49.89	5.76444
49.9	5.75753
49.91	5.77793
49.92	5.72497
49.93	5.77957
49.94	5.79405
49.95	5.7549
49.96	5.77793
49.97	5.77826
49.98	5.71082
49.99	5.70786
50	5.72957
