"BIO-KINE ASCII FILE"
"_COMMENT"	"MOS-500 Spectrometer"
"_COMMENT"	"Kinetics measurement"
"_COMMENT"	"Y Unit : Volt,  X Unit : s"
"_COMMENT"	"Excitation wavelength : 380 nm"
"_COMMENT"	"Fentes bandwidth =  1 nm"
"_COMMENT"	"HV= 1000V"
"_COMMENT"	"Timebase  1 =  .01 s   5001 pts"
"_SFM"	"SFM-400 /S  Advanced mode"
"_SFM"	"Ratio : S1: 2.5, S2: 0, S3: 0, S4: 1"
"_SFM"	"Content : S1: , S2: , S3: , S4:"
"_SFM"	"Concentration : S1: , S2: , S3: , S4:"
"_SFM"	"Total volume : 209 µl  Flow : 3.5 mL/s"
"_SFM"	"Acquisition start :  10 ms before stop"
"_SFM"	"cuve=FC-15, s1=10 ml , s2=10 ml , s3=10 ml , s4=1.9 ml"
"_UNITX"	"s"
"_UNITY"	"Volt"
"_DELTAX"	0
"_DATA"
1e-300	2.97126
0.01	2.91633
0.02	2.91896
0.03	2.94166
0.04	2.98607
0.05	3.0137
0.06	3.04561
0.07	3.06238
0.08	3.11271
0.09	3.08739
0.1	3.11568
0.11	3.16041
0.12	3.14265
0.13	3.12423
0.14	3.11008
0.15	3.17423
0.16	3.17226
0.17	3.16239
0.18	3.12949
0.19	3.1387
0.2	3.12094
0.21	3.1512
0.22	3.1512
0.23	3.15153
0.24	3.1614
0.25	3.18443
0.26	3.17193
0.27	3.13114
0.28	3.13903
0.29	3.15647
0.3	3.1216
0.31	3.16239
0.32	3.1762
0.33	3.16436
0.34	3.17916
0.35	3.18081
0.36	3.14824
0.37	3.12258
0.38	3.16436
0.39	3.11271
0.4	3.14462
0.41	3.1512
0.42	3.15581
0.43	3.14101
0.44	3.1637
0.45	3.18607
0.46	3.14002
0.47	3.14429
0.48	3.13969
0.49	3.1614
0.5	3.17423
0.51	3.17226
0.52	3.15548
0.53	3.1818
0.54	3.14265
0.55	3.14298
0.56	3.17061
0.57	3.14989
0.58	3.09199
0.59	3.15055
0.6	3.15416
0.61	3.16272
0.62	3.14232
0.63	3.16041
0.64	3.16074
0.65	3.1614
0.66	3.11929
0.67	3.15614
0.68	3.16798
0.69	3.17587
0.7	3.18509
0.71	3.17259
0.72	3.13114
0.73	3.13772
0.74	3.16535
0.75	3.15614
0.76	3.14364
0.77	3.19199
0.78	3.11897
0.79	3.15087
0.8	3.14101
0.81	3.12489
0.82	3.11831
0.83	3.11173
0.84	3.14857
0.85	3.15614
0.86	3.13804
0.87	3.1637
0.88	3.14627
0.89	3.13739
0.9	3.14035
0.91	3.17324
0.92	3.18377
0.93	3.19199
0.94	3.14726
0.95	3.11337
0.96	3.14002
0.97	3.14561
0.98	3.116
0.99	3.10712
1	3.1387
1.01	3.09791
1.02	3.13179
1.03	3.12456
1.04	3.15449
1.05	3.15515
1.06	3.15416
1.07	3.1637
1.08	3.14397
1.09	3.13936
1.1	3.14068
1.11	3.14462
1.12	3.12324
1.13	3.13837
1.14	3.15548
1.15	3.14002
1.16	3.12258
1.17	3.1239
1.18	3.12225
1.19	3.11699
1.2	3.1035
1.21	3.12916
1.22	3.14068
1.23	3.13081
1.24	3.11633
1.25	3.13278
1.26	3.11962
1.27	3.10646
1.28	3.08311
1.29	3.12752
1.3	3.13508
1.31	3.08541
1.32	3.116
1.33	3.1466
1.34	3.10416
1.35	3.11469
1.36	3.13048
1.37	3.1364
1.38	3.09396
1.39	3.14726
1.4	3.13048
1.41	3.14035
1.42	3.11765
1.43	3.10087
1.44	3.11469
1.45	3.09429
1.46	3.11041
1.47	3.13048
1.48	3.09923
1.49	3.12587
1.5	3.11633
1.51	3.10252
1.52	3.09067
1.53	3.11962
1.54	3.1341
1.55	3.11864
1.56	3.10712
1.57	3.13278
1.58	3.11666
1.59	3.11337
1.6	3.14166
1.61	3.10679
1.62	3.11436
1.63	3.10581
1.64	3.10975
1.65	3.12653
1.66	3.13706
1.67	3.12291
1.68	3.10811
1.69	3.12587
1.7	3.11008
1.71	3.11864
1.72	3.09725
1.73	3.11897
1.74	3.08574
1.75	3.0887
1.76	3.11962
1.77	3.1137
1.78	3.12423
1.79	3.11732
1.8	3.12291
1.81	3.13443
1.82	3.07752
1.83	3.12883
1.84	3.10614
1.85	3.10778
1.86	3.08541
1.87	3.09035
1.88	3.13311
1.89	3.11403
1.9	3.10252
1.91	3.10219
1.92	3.10087
1.93	3.08837
1.94	3.07883
1.95	3.1091
1.96	3.07127
1.97	3.11206
1.98	3.10745
1.99	3.09989
2	3.10087
2.01	3.06995
2.02	3.07719
2.03	3.11271
2.04	3.08311
2.05	3.09199
2.06	3.08607
2.07	3.06962
2.08	3.07521
2.09	3.09857
2.1	3.11633
2.11	3.10975
2.12	3.10383
2.13	3.07291
2.14	3.07916
2.15	3.08508
2.16	3.08936
2.17	3.07686
2.18	3.10548
2.19	3.08081
2.2	3.0716
2.21	3.09035
2.22	3.08837
2.23	3.08969
2.24	3.11403
2.25	3.09561
2.26	3.07817
2.27	3.0887
2.28	3.091
2.29	3.07949
2.3	3.08508
2.31	3.15087
2.32	3.11403
2.33	3.08607
2.34	3.09692
2.35	3.10811
2.36	3.091
2.37	3.09166
2.38	3.08311
2.39	3.09528
2.4	3.08771
2.41	3.10614
2.42	3.11239
2.43	3.08212
2.44	3.09857
2.45	3.1035
2.46	3.08113
2.47	3.10482
2.48	3.09002
2.49	3.06699
2.5	3.05877
2.51	3.08936
2.52	3.07653
2.53	3.07488
2.54	3.10679
2.55	3.07916
2.56	3.07488
2.57	3.08739
2.58	3.08837
2.59	3.09232
2.6	3.08015
2.61	3.08706
2.62	3.06271
2.63	3.04988
2.64	3.08311
2.65	3.06995
2.66	3.0966
2.67	3.091
2.68	3.06337
2.69	3.06567
2.7	3.07225
2.71	3.08837
2.72	3.09692
2.73	3.11107
2.74	3.08837
2.75	3.09758
2.76	3.09331
2.77	3.1091
2.78	3.05778
2.79	3.0285
2.8	3.06765
2.81	3.07225
2.82	3.04396
2.83	3.06567
2.84	3.06732
2.85	3.06008
2.86	3.06798
2.87	3.07521
2.88	3.0785
2.89	3.0716
2.9	3.05975
2.91	3.05317
2.92	3.06732
2.93	3.07521
2.94	3.03146
2.95	3.0841
2.96	3.08245
2.97	3.06206
2.98	3.03212
2.99	3.0716
3	3.08048
3.01	3.08344
3.02	3.05153
3.03	3.05942
3.04	3.09594
3.05	3.04857
3.06	3.05515
3.07	3.05186
3.08	3.05153
3.09	3.0614
3.1	3.05186
3.11	3.07686
3.12	3.06765
3.13	3.02192
3.14	3.06469
3.15	3.07423
3.16	3.05416
3.17	3.06271
3.18	3.05909
3.19	3.07456
3.2	3.08278
3.21	3.05252
3.22	3.05712
3.23	3.066
3.24	3.08048
3.25	3.11239
3.26	3.08969
3.27	3.06206
3.28	3.07258
3.29	3.09035
3.3	3.08475
3.31	3.08574
3.32	3.0841
3.33	3.05679
3.34	3.08179
3.35	3.05515
3.36	3.06534
3.37	3.07949
3.38	3.0535
3.39	3.04429
3.4	3.05416
3.41	3.05679
3.42	3.08212
3.43	3.07554
3.44	3.04495
3.45	3.02587
3.46	3.05909
3.47	3.03508
3.48	3.04298
3.49	3.05482
3.5	3.02949
3.51	3.06831
3.52	3.09133
3.53	3.06929
3.54	3.03936
3.55	3.03607
3.56	3.05778
3.57	3.06666
3.58	3.06469
3.59	3.06206
3.6	3.05482
3.61	3.04133
3.62	3.08673
3.63	3.06798
3.64	3.00284
3.65	3.03245
3.66	3.08673
3.67	3.05811
3.68	3.05975
3.69	3.07982
3.7	3.03969
3.71	3.03771
3.72	3.03969
3.73	3.02423
3.74	3.04166
3.75	3.04857
3.76	3.04396
3.77	3.05449
3.78	3.04133
3.79	3.05745
3.8	3.05942
3.81	3.04923
3.82	3.04166
3.83	3.0637
3.84	3.05383
3.85	3.0739
3.86	3.07686
3.87	3.06534
3.88	3.05186
3.89	3.04067
3.9	3.03475
3.91	3.02554
3.92	3.05778
3.93	3.02949
3.94	3.03903
3.95	3.07949
3.96	3.05811
3.97	3.03048
3.98	3.04067
3.99	3.0512
4	3.04758
4.01	3.05679
4.02	3.0762
4.03	3.10087
4.04	3.066
4.05	3.04594
4.06	3.0637
4.07	3.04067
4.08	3.06436
4.09	3.04002
4.1	3.0114
4.11	3.02225
4.12	3.05646
4.13	3.07686
4.14	3.03738
4.15	3.04561
4.16	3.05252
4.17	3.05745
4.18	3.01403
4.19	3.03015
4.2	3.04627
4.21	3.04034
4.22	3.0308
4.23	3.06732
4.24	3.0262
4.25	3.02126
4.26	3.03048
4.27	3.041
4.28	3.04363
4.29	3.06798
4.3	3.016
4.31	3.04199
4.32	3.05252
4.33	3.01995
4.34	2.98936
4.35	3.04725
4.36	3.06534
4.37	3.04462
4.38	3.04232
4.39	3.04232
4.4	3.06831
4.41	3.02686
4.42	3.04495
4.43	3.04396
4.44	3.05054
4.45	3.04034
4.46	3.05317
4.47	3.08146
4.48	3.05581
4.49	3.03574
4.5	3.01567
4.51	3.00054
4.52	3.02554
4.53	3.04495
4.54	3.0262
4.55	3.01337
4.56	3.03969
4.57	3.0512
4.58	3.01436
4.59	3.03541
4.6	3.01863
4.61	3.03541
4.62	3.0137
4.63	3.02291
4.64	2.99692
4.65	2.99593
4.66	3.01929
4.67	3.02916
4.68	3.00153
4.69	3.02423
4.7	3.01436
4.71	2.99363
4.72	3.02324
4.73	3.05416
4.74	3.06173
4.75	3.02554
4.76	3.04298
4.77	3.03015
4.78	3.03344
4.79	3.01205
4.8	3.04857
4.81	3.01896
4.82	3.02751
4.83	3.04363
4.84	3.03508
4.85	3.01107
4.86	3.02751
4.87	3.02455
4.88	3.04199
4.89	3.04396
4.9	3.02653
4.91	3.03245
4.92	3.02061
4.93	3.03574
4.94	3.0739
4.95	3.05613
4.96	3.01469
4.97	2.98903
4.98	3.03146
4.99	3.03541
5	3.02061
5.01	3.03771
5.02	3.00482
5.03	3.00679
5.04	3.02225
5.05	3.0239
5.06	3.03738
5.07	3.0364
5.08	3.01995
5.09	3.01962
5.1	3.01962
5.11	2.97357
5.12	3.00416
5.13	3.0364
5.14	2.99232
5.15	3.00844
5.16	3.01172
5.17	3.04495
5.18	3.04561
5.19	2.99001
5.2	3.01337
5.21	3.00942
5.22	3.06403
5.23	3.0183
5.24	3.02554
5.25	3.03212
5.26	3.04298
5.27	3.03409
5.28	3.016
5.29	3.02686
5.3	3.04627
5.31	3.03278
5.32	3.06436
5.33	3.02587
5.34	3.016
5.35	3.0137
5.36	3.00515
5.37	3.03376
5.38	3.00449
5.39	3.01896
5.4	3.03245
5.41	3.00416
5.42	3.02488
5.43	3.00844
5.44	3.0308
5.45	2.99528
5.46	2.99922
5.47	3.01633
5.48	3.0058
5.49	3.01863
5.5	2.9683
5.51	3.01798
5.52	3.01962
5.53	3.00383
5.54	2.98804
5.55	3.04298
5.56	3.02225
5.57	3.01798
5.58	3.01271
5.59	3.02488
5.6	2.98311
5.61	2.99791
5.62	3.02423
5.63	3.05515
5.64	3.00054
5.65	3.01008
5.66	3.01567
5.67	3.01896
5.68	3.00251
5.69	3.01863
5.7	2.98705
5.71	2.98245
5.72	3.01666
5.73	2.98278
5.74	2.98541
5.75	3.00646
5.76	2.99593
5.77	3.00087
5.78	2.97653
5.79	2.99363
5.8	3.02192
5.81	2.98442
5.82	3.04495
5.83	3.01732
5.84	3.00251
5.85	2.99396
5.86	3.01501
5.87	3.00909
5.88	3.00153
5.89	3.0285
5.9	3.04857
5.91	3.01798
5.92	2.9864
5.93	3.02949
5.94	2.98672
5.95	3.01041
5.96	3.01074
5.97	2.98804
5.98	2.991
5.99	2.98738
6	2.99758
6.01	2.98442
6.02	2.99955
6.03	3.01436
6.04	3.03705
6.05	3.0137
6.06	3.02982
6.07	3.01469
6.08	3.01699
6.09	3.00712
6.1	2.97028
6.11	3.00745
6.12	3.01107
6.13	3.00942
6.14	2.97653
6.15	3.00613
6.16	3.00186
6.17	3.01337
6.18	2.98475
6.19	2.98607
6.2	2.99528
6.21	2.96962
6.22	2.97718
6.23	3.01337
6.24	2.99692
6.25	2.98475
6.26	2.99561
6.27	3.00679
6.28	2.991
6.29	2.9933
6.3	3.01699
6.31	3.02982
6.32	3.00251
6.33	2.99659
6.34	3.00186
6.35	2.99659
6.36	3.01469
6.37	3.01041
6.38	2.99034
6.39	3.00745
6.4	3.0035
6.41	3.00219
6.42	2.98475
6.43	2.99495
6.44	2.99955
6.45	2.98409
6.46	3.02587
6.47	2.966
6.48	2.97718
6.49	3.00844
6.5	3.04067
6.51	3.0035
6.52	2.99265
6.53	3.00449
6.54	2.98409
6.55	3.01238
6.56	2.9864
6.57	2.98245
6.58	2.97126
6.59	2.99659
6.6	3.00515
6.61	3.0058
6.62	3.01962
6.63	2.97389
6.64	2.99396
6.65	3.00811
6.66	3.02324
6.67	3.01271
6.68	3.01436
6.69	3.00942
6.7	3.01304
6.71	3.01699
6.72	3.00284
6.73	2.98376
6.74	2.97949
6.75	2.99034
6.76	2.9989
6.77	2.98804
6.78	2.96633
6.79	2.96271
6.8	3.04298
6.81	2.98508
6.82	2.9808
6.83	3.00876
6.84	2.94856
6.85	2.99199
6.86	2.97225
6.87	3.00383
6.88	3.00876
6.89	2.99692
6.9	2.94725
6.91	2.9808
6.92	2.99034
6.93	2.95876
6.94	3.00186
6.95	3.01172
6.96	3.02817
6.97	2.99626
6.98	2.98903
6.99	2.99133
7	3.00547
7.01	2.98014
7.02	2.99528
7.03	3.0114
7.04	2.98936
7.05	2.991
7.06	2.97554
7.07	2.97159
7.08	3.00186
7.09	3.01995
7.1	3.00251
7.11	3.00909
7.12	2.99166
7.13	2.96699
7.14	2.98475
7.15	3.02225
7.16	2.98113
7.17	2.99955
7.18	2.99265
7.19	2.98343
7.2	2.99922
7.21	2.97455
7.22	3.0035
7.23	2.9933
7.24	3.00679
7.25	2.99955
7.26	2.98705
7.27	3.0035
7.28	2.99955
7.29	2.99001
7.3	2.99659
7.31	2.98771
7.32	2.97554
7.33	2.9762
7.34	2.95514
7.35	2.95646
7.36	2.96435
7.37	2.9887
7.38	3.00153
7.39	2.97159
7.4	2.94363
7.41	2.95153
7.42	2.96403
7.43	2.99001
7.44	2.99626
7.45	2.97916
7.46	3.02554
7.47	3.01469
7.48	2.97718
7.49	2.97389
7.5	2.98574
7.51	2.99396
7.52	3.00876
7.53	2.9683
7.54	2.99791
7.55	2.97159
7.56	2.99297
7.57	3.01863
7.58	2.98771
7.59	3.00679
7.6	2.9762
7.61	2.97718
7.62	3.00646
7.63	2.9887
7.64	2.95449
7.65	2.97982
7.66	2.96863
7.67	2.96403
7.68	2.99232
7.69	2.97159
7.7	2.93639
7.71	2.95449
7.72	2.97718
7.73	2.97587
7.74	2.98179
7.75	2.96403
7.76	2.99725
7.77	2.95087
7.78	2.97061
7.79	2.9808
7.8	2.93968
7.81	2.98804
7.82	2.97521
7.83	2.97028
7.84	2.98771
7.85	2.95975
7.86	2.95613
7.87	2.97883
7.88	2.96008
7.89	2.99001
7.9	2.95514
7.91	2.9683
7.92	2.95745
7.93	2.9433
7.94	2.96567
7.95	2.94856
7.96	2.98278
7.97	2.99133
7.98	2.97982
7.99	2.96435
8	2.95942
8.01	3.00416
8.02	3.00712
8.03	2.97126
8.04	2.97488
8.05	2.96666
8.06	2.96205
8.07	2.99166
8.08	2.99495
8.09	2.97718
8.1	2.98903
8.11	2.97324
8.12	2.9785
8.13	3.00186
8.14	2.95218
8.15	2.97949
8.16	2.97686
8.17	2.96764
8.18	2.9535
8.19	2.93014
8.2	2.97159
8.21	2.97883
8.22	3.01205
8.23	3.00844
8.24	2.97028
8.25	2.99067
8.26	2.98146
8.27	2.95745
8.28	2.96797
8.29	2.96633
8.3	2.96205
8.31	2.98179
8.32	3.00284
8.33	2.98771
8.34	2.96435
8.35	2.9762
8.36	2.98278
8.37	2.98212
8.38	2.98343
8.39	2.96863
8.4	2.97751
8.41	2.95185
8.42	2.96435
8.43	2.97718
8.44	2.98245
8.45	3.00416
8.46	2.97653
8.47	2.99758
8.48	2.97949
8.49	2.97521
8.5	3.01008
8.51	2.95482
8.52	2.93672
8.53	2.97258
8.54	2.97817
8.55	2.99659
8.56	2.9785
8.57	3.03574
8.58	2.97455
8.59	2.97455
8.6	2.97488
8.61	2.93508
8.62	3.00844
8.63	2.97093
8.64	2.95317
8.65	2.95449
8.66	2.96041
8.67	2.97028
8.68	2.95416
8.69	2.96238
8.7	3.00383
8.71	2.99396
8.72	2.98574
8.73	2.95613
8.74	2.91863
8.75	2.97324
8.76	2.96896
8.77	2.97784
8.78	2.98672
8.79	2.9785
8.8	2.96172
8.81	2.96797
8.82	2.95087
8.83	2.94659
8.84	2.95909
8.85	2.94495
8.86	2.96041
8.87	2.98541
8.88	2.95416
8.89	2.97291
8.9	2.97455
8.91	2.96863
8.92	2.98179
8.93	2.97949
8.94	2.97455
8.95	2.94495
8.96	2.96074
8.97	2.97291
8.98	2.95547
8.99	2.97028
9	2.98804
9.01	2.96403
9.02	2.92718
9.03	2.95185
9.04	2.96732
9.05	2.98409
9.06	2.95712
9.07	2.96863
9.08	2.95679
9.09	2.93606
9.1	2.99561
9.11	2.96074
9.12	2.95975
9.13	2.97258
9.14	2.96501
9.15	2.93245
9.16	2.94922
9.17	2.9581
9.18	2.96403
9.19	2.98508
9.2	3.01205
9.21	2.99593
9.22	2.96896
9.23	2.95843
9.24	2.94528
9.25	2.96995
9.26	2.97784
9.27	2.95416
9.28	2.95284
9.29	2.96468
9.3	2.97225
9.31	2.916
9.32	2.94725
9.33	2.95482
9.34	2.96764
9.35	2.95514
9.36	2.94199
9.37	2.95087
9.38	2.95449
9.39	2.94363
9.4	2.94889
9.41	2.9762
9.42	2.9887
9.43	2.95876
9.44	3.00054
9.45	2.98311
9.46	2.93968
9.47	2.95975
9.48	2.98376
9.49	2.93277
9.5	2.92751
9.51	2.97225
9.52	2.92554
9.53	2.94725
9.54	2.95942
9.55	2.92488
9.56	2.93738
9.57	2.96468
9.58	2.9558
9.59	2.94363
9.6	2.96337
9.61	2.92883
9.62	2.95153
9.63	2.9558
9.64	2.97982
9.65	2.98376
9.66	2.95514
9.67	2.96074
9.68	2.93277
9.69	2.94955
9.7	2.9581
9.71	2.96896
9.72	2.92883
9.73	2.94363
9.74	2.96304
9.75	2.97554
9.76	2.97225
9.77	2.97028
9.78	2.9683
9.79	2.96962
9.8	2.98508
9.81	2.9637
9.82	2.96962
9.83	2.97587
9.84	2.95712
9.85	2.95909
9.86	2.96107
9.87	2.96074
9.88	2.97718
9.89	2.95646
9.9	2.96041
9.91	2.95185
9.92	2.94659
9.93	2.98804
9.94	2.97949
9.95	2.94659
9.96	2.94922
9.97	2.98343
9.98	2.94001
9.99	2.93574
10	2.966
10.01	2.96074
10.02	2.99034
10.03	2.95185
10.04	2.95021
10.05	2.92521
10.06	2.93837
10.07	2.95383
10.08	2.96534
10.09	2.95054
10.1	2.97949
10.11	2.92784
10.12	2.95975
10.13	2.93804
10.14	2.941
10.15	2.97587
10.16	2.92652
10.17	2.97422
10.18	2.95482
10.19	2.96139
10.2	2.95679
10.21	2.97587
10.22	2.97028
10.23	2.9762
10.24	2.95153
10.25	2.97817
10.26	2.94593
10.27	2.94034
10.28	2.941
10.29	2.98903
10.3	2.9535
10.31	2.94988
10.32	2.95021
10.33	2.91238
10.34	2.93574
10.35	2.95416
10.36	2.95613
10.37	2.95679
10.38	2.95778
10.39	2.92949
10.4	2.92324
10.41	2.95778
10.42	2.95909
10.43	2.9558
10.44	2.97455
10.45	2.93277
10.46	2.93935
10.47	2.92093
10.48	2.91008
10.49	2.97126
10.5	2.97291
10.51	2.94824
10.52	2.97324
10.53	2.96995
10.54	2.93738
10.55	2.9558
10.56	2.94133
10.57	2.92192
10.58	2.93245
10.59	2.9308
10.6	2.95153
10.61	2.97258
10.62	2.93475
10.63	2.9387
10.64	2.94199
10.65	2.93968
10.66	2.9308
10.67	2.93705
10.68	2.94001
10.69	2.96172
10.7	2.93672
10.71	2.96995
10.72	2.96238
10.73	2.96304
10.74	2.92784
10.75	2.96074
10.76	2.93804
10.77	2.94528
10.78	2.92159
10.79	2.94528
10.8	2.96732
10.81	2.98771
10.82	2.95646
10.83	2.96797
10.84	2.97225
10.85	2.9581
10.86	2.93277
10.87	2.91304
10.88	2.94626
10.89	2.97422
10.9	2.96205
10.91	2.95218
10.92	2.93968
10.93	2.94922
10.94	2.94856
10.95	2.95054
10.96	2.96699
10.97	2.97159
10.98	2.96304
10.99	2.95185
11	2.92455
11.01	2.92652
11.02	2.9512
11.03	2.9535
11.04	2.93606
11.05	2.94396
11.06	2.97028
11.07	2.95054
11.08	2.91666
11.09	2.9137
11.1	2.95021
11.11	2.93771
11.12	2.92093
11.13	2.92422
11.14	2.93376
11.15	2.94528
11.16	2.92685
11.17	2.93639
11.18	2.94001
11.19	2.92916
11.2	2.9183
11.21	2.93475
11.22	2.92916
11.23	2.93541
11.24	2.94429
11.25	2.94231
11.26	2.97126
11.27	2.9558
11.28	2.95087
11.29	2.92916
11.3	2.92685
11.31	2.92521
11.32	2.94396
11.33	2.9285
11.34	2.94133
11.35	2.9456
11.36	2.966
11.37	2.97093
11.38	2.99561
11.39	2.93146
11.4	2.9637
11.41	2.95679
11.42	2.95218
11.43	2.90876
11.44	2.93541
11.45	2.91501
11.46	2.9206
11.47	2.92883
11.48	2.95613
11.49	2.92587
11.5	2.95482
11.51	2.92225
11.52	2.97258
11.53	2.93245
11.54	2.90317
11.55	2.94659
11.56	2.95284
11.57	2.94659
11.58	2.93475
11.59	2.95054
11.6	2.92192
11.61	2.9183
11.62	2.94231
11.63	2.95021
11.64	2.91731
11.65	2.97653
11.66	2.95317
11.67	2.92883
11.68	2.93113
11.69	2.92356
11.7	2.92027
11.71	2.95876
11.72	2.95942
11.73	2.92817
11.74	2.92488
11.75	2.95383
11.76	2.95679
11.77	2.9558
11.78	2.94001
11.79	2.91337
11.8	2.9285
11.81	2.93277
11.82	2.94462
11.83	2.91501
11.84	2.92291
11.85	2.92883
11.86	2.95712
11.87	2.93409
11.88	2.9308
11.89	2.94593
11.9	2.94462
11.91	2.93212
11.92	2.96995
11.93	2.98376
11.94	2.95021
11.95	2.90745
11.96	2.88146
11.97	2.92554
11.98	2.93738
11.99	2.9262
12	2.90054
12.01	2.93146
12.02	2.91304
12.03	2.92916
12.04	2.93639
12.05	2.93245
12.06	2.9308
12.07	2.97093
12.08	2.95416
12.09	2.92685
12.1	2.92455
12.11	2.94626
12.12	2.92949
12.13	2.90975
12.14	2.95514
12.15	2.9456
12.16	2.9433
12.17	2.94429
12.18	2.93277
12.19	2.93113
12.2	2.94034
12.21	2.89922
12.22	2.92554
12.23	2.94297
12.24	2.94856
12.25	2.96863
12.26	2.93343
12.27	2.95021
12.28	2.94725
12.29	2.93047
12.3	2.90942
12.31	2.93442
12.32	2.94758
12.33	2.95482
12.34	2.94001
12.35	2.94166
12.36	2.98968
12.37	2.95416
12.38	2.94725
12.39	2.9387
12.4	2.92981
12.41	2.95054
12.42	2.95843
12.43	2.95876
12.44	2.97521
12.45	2.94067
12.46	2.94067
12.47	2.92949
12.48	2.93968
12.49	2.93771
12.5	2.94593
12.51	2.94199
12.52	2.93014
12.53	2.93639
12.54	2.93245
12.55	2.93903
12.56	2.93475
12.57	2.92883
12.58	2.93047
12.59	2.96041
12.6	2.97093
12.61	2.93738
12.62	2.92389
12.63	2.9387
12.64	2.90416
12.65	2.92883
12.66	2.95251
12.67	2.91073
12.68	2.96764
12.69	2.96205
12.7	2.95185
12.71	2.93903
12.72	2.93113
12.73	2.9558
12.74	2.9535
12.75	2.94988
12.76	2.92817
12.77	2.95514
12.78	2.9456
12.79	2.95646
12.8	2.89264
12.81	2.94034
12.82	2.93212
12.83	2.93705
12.84	2.95185
12.85	2.91073
12.86	2.94034
12.87	2.93212
12.88	2.94297
12.89	2.91731
12.9	2.9285
12.91	2.93376
12.92	2.91271
12.93	2.93179
12.94	2.93968
12.95	2.9456
12.96	2.94199
12.97	2.93968
12.98	2.91764
12.99	2.9206
13	2.92949
13.01	2.94034
13.02	2.90712
13.03	2.93409
13.04	2.93705
13.05	2.94396
13.06	2.92455
13.07	2.91863
13.08	2.94824
13.09	2.94495
13.1	2.91896
13.11	2.94264
13.12	2.90843
13.13	2.96074
13.14	2.94889
13.15	2.94133
13.16	2.92488
13.17	2.93639
13.18	2.91106
13.19	2.95317
13.2	2.92883
13.21	2.94495
13.22	2.94199
13.23	2.95646
13.24	2.92455
13.25	2.90876
13.26	2.91863
13.27	2.91797
13.28	2.91402
13.29	2.91041
13.3	2.92554
13.31	2.91041
13.32	2.92817
13.33	2.91304
13.34	2.92916
13.35	2.94824
13.36	2.92587
13.37	2.92916
13.38	2.9262
13.39	2.90843
13.4	2.92718
13.41	2.90416
13.42	2.91501
13.43	2.96732
13.44	2.93047
13.45	2.92685
13.46	2.9512
13.47	2.96732
13.48	2.95613
13.49	2.94034
13.5	2.90383
13.51	2.92587
13.52	2.89462
13.53	2.89001
13.54	2.93541
13.55	2.94725
13.56	2.92883
13.57	2.89758
13.58	2.9285
13.59	2.94791
13.6	2.94462
13.61	2.94166
13.62	2.93837
13.63	2.92883
13.64	2.91139
13.65	2.93837
13.66	2.91205
13.67	2.93606
13.68	2.93245
13.69	2.92225
13.7	2.95778
13.71	2.92159
13.72	2.92554
13.73	2.94889
13.74	2.93113
13.75	2.94001
13.76	2.89231
13.77	2.92356
13.78	2.90975
13.79	2.90416
13.8	2.92422
13.81	2.92949
13.82	2.93574
13.83	2.90383
13.84	2.91567
13.85	2.93903
13.86	2.90284
13.87	2.92685
13.88	2.90777
13.89	2.89889
13.9	2.94593
13.91	2.92356
13.92	2.86698
13.93	2.91205
13.94	2.89725
13.95	2.90646
13.96	2.88179
13.97	2.87488
13.98	2.91435
13.99	2.92685
14	2.93771
14.01	2.91435
14.02	2.88606
14.03	2.88146
14.04	2.9137
14.05	2.92027
14.06	2.90448
14.07	2.90317
14.08	2.95054
14.09	2.92751
14.1	2.92093
14.11	2.92159
14.12	2.92455
14.13	2.91534
14.14	2.92324
14.15	2.9558
14.16	2.94725
14.17	2.91139
14.18	2.92916
14.19	2.89396
14.2	2.88705
14.21	2.89363
14.22	2.90712
14.23	2.93771
14.24	2.94856
14.25	2.93113
14.26	2.90054
14.27	2.93343
14.28	2.91863
14.29	2.92784
14.3	2.92521
14.31	2.95646
14.32	2.93804
14.33	2.90547
14.34	2.91929
14.35	2.93738
14.36	2.95416
14.37	2.94988
14.38	2.90284
14.39	2.90547
14.4	2.91698
14.41	2.9262
14.42	2.9206
14.43	2.89955
14.44	2.92422
14.45	2.92291
14.46	2.90021
14.47	2.93343
14.48	2.92784
14.49	2.91435
14.5	2.89067
14.51	2.92258
14.52	2.93245
14.53	2.90646
14.54	2.90646
14.55	2.96238
14.56	2.92291
14.57	2.9456
14.58	2.94199
14.59	2.91534
14.6	2.93541
14.61	2.92554
14.62	2.89791
14.63	2.9183
14.64	2.93475
14.65	2.91435
14.66	2.92488
14.67	2.89692
14.68	2.91731
14.69	2.90745
14.7	2.92949
14.71	2.92258
14.72	2.92258
14.73	2.91304
14.74	2.91402
14.75	2.90054
14.76	2.91468
14.77	2.91764
14.78	2.91698
14.79	2.91501
14.8	2.94758
14.81	2.94166
14.82	2.89988
14.83	2.89494
14.84	2.90777
14.85	2.89001
14.86	2.90087
14.87	2.9331
14.88	2.94264
14.89	2.92192
14.9	2.9081
14.91	2.90613
14.92	2.91698
14.93	2.94231
14.94	2.90087
14.95	2.90975
14.96	2.93804
14.97	2.92455
14.98	2.91402
14.99	2.91633
15	2.90448
15.01	2.88935
15.02	2.89001
15.03	2.9035
15.04	2.89462
15.05	2.91271
15.06	2.92718
15.07	2.93179
15.08	2.941
15.09	2.916
15.1	2.89593
15.11	2.89823
15.12	2.92291
15.13	2.92422
15.14	2.92159
15.15	2.91468
15.16	2.90448
15.17	2.91337
15.18	2.91435
15.19	2.91731
15.2	2.89889
15.21	2.91271
15.22	2.91041
15.23	2.90745
15.24	2.92356
15.25	2.95778
15.26	2.90416
15.27	2.9183
15.28	2.91238
15.29	2.92488
15.3	2.94001
15.31	2.90087
15.32	2.93935
15.33	2.91797
15.34	2.88968
15.35	2.91666
15.36	2.93574
15.37	2.90942
15.38	2.91764
15.39	2.8581
15.4	2.88869
15.41	2.86731
15.42	2.90679
15.43	2.90712
15.44	2.92784
15.45	2.92093
15.46	2.90679
15.47	2.95054
15.48	2.9262
15.49	2.92027
15.5	2.8706
15.51	2.89659
15.52	2.91238
15.53	2.88902
15.54	2.93014
15.55	2.9331
15.56	2.90613
15.57	2.91896
15.58	2.9035
15.59	2.92751
15.6	2.93541
15.61	2.89626
15.62	2.9183
15.63	2.89889
15.64	2.89889
15.65	2.94231
15.66	2.93475
15.67	2.94199
15.68	2.93837
15.69	2.91139
15.7	2.92554
15.71	2.93212
15.72	2.93639
15.73	2.87981
15.74	2.90712
15.75	2.92554
15.76	2.941
15.77	2.93639
15.78	2.92159
15.79	2.91534
15.8	2.9035
15.81	2.89889
15.82	2.88475
15.83	2.89527
15.84	2.91304
15.85	2.87915
15.86	2.90416
15.87	2.91666
15.88	2.89593
15.89	2.9137
15.9	2.92949
15.91	2.93179
15.92	2.94659
15.93	2.90383
15.94	2.86567
15.95	2.93014
15.96	2.92027
15.97	2.92488
15.98	2.89396
15.99	2.88968
16	2.92949
16.01	2.89462
16.02	2.92488
16.03	2.89166
16.04	2.88409
16.05	2.92981
16.06	2.88869
16.07	2.88968
16.08	2.92718
16.09	2.90876
16.1	2.9206
16.11	2.92751
16.12	2.94495
16.13	2.92422
16.14	2.89922
16.15	2.93409
16.16	2.92389
16.17	2.92718
16.18	2.90514
16.19	2.88442
16.2	2.93047
16.21	2.91962
16.22	2.88606
16.23	2.8706
16.24	2.91337
16.25	2.90284
16.26	2.85679
16.27	2.90021
16.28	2.90481
16.29	2.90613
16.3	2.89856
16.31	2.89067
16.32	2.92488
16.33	2.92159
16.34	2.90547
16.35	2.90416
16.36	2.90975
16.37	2.92422
16.38	2.92159
16.39	2.90843
16.4	2.92652
16.41	2.92554
16.42	2.91501
16.43	2.93705
16.44	2.9331
16.45	2.91501
16.46	2.91995
16.47	2.90054
16.48	2.90087
16.49	2.89692
16.5	2.9456
16.51	2.93968
16.52	2.92356
16.53	2.8933
16.54	2.92356
16.55	2.92258
16.56	2.91698
16.57	2.92027
16.58	2.92751
16.59	2.92685
16.6	2.89429
16.61	2.90021
16.62	2.89889
16.63	2.88014
16.64	2.87685
16.65	2.89067
16.66	2.91764
16.67	2.92225
16.68	2.90679
16.69	2.89593
16.7	2.89889
16.71	2.91106
16.72	2.94231
16.73	2.88935
16.74	2.94429
16.75	2.941
16.76	2.88639
16.77	2.916
16.78	2.89988
16.79	2.88343
16.8	2.89692
16.81	2.89593
16.82	2.90909
16.83	2.91271
16.84	2.8808
16.85	2.89264
16.86	2.89659
16.87	2.88639
16.88	2.88179
16.89	2.90087
16.9	2.87652
16.91	2.89626
16.92	2.89527
16.93	2.92356
16.94	2.89363
16.95	2.87356
16.96	2.92784
16.97	2.89363
16.98	2.91863
16.99	2.90448
17	2.89001
17.01	2.8933
17.02	2.89725
17.03	2.92389
17.04	2.90942
17.05	2.9206
17.06	2.89396
17.07	2.91896
17.08	2.91337
17.09	2.92126
17.1	2.90383
17.11	2.90481
17.12	2.90712
17.13	2.89363
17.14	2.9058
17.15	2.91501
17.16	2.89692
17.17	2.95547
17.18	2.9581
17.19	2.89955
17.2	2.89494
17.21	2.90679
17.22	2.90777
17.23	2.88146
17.24	2.91666
17.25	2.92784
17.26	2.89692
17.27	2.90712
17.28	2.92554
17.29	2.92883
17.3	2.90843
17.31	2.91041
17.32	2.90021
17.33	2.90942
17.34	2.90218
17.35	2.92258
17.36	2.86534
17.37	2.89758
17.38	2.93277
17.39	2.90317
17.4	2.90218
17.41	2.91106
17.42	2.93935
17.43	2.91567
17.44	2.94231
17.45	2.92291
17.46	2.92258
17.47	2.89067
17.48	2.90481
17.49	2.916
17.5	2.89133
17.51	2.88738
17.52	2.9535
17.53	2.89692
17.54	2.89725
17.55	2.9183
17.56	2.92652
17.57	2.90416
17.58	2.91139
17.59	2.92258
17.6	2.89527
17.61	2.88179
17.62	2.90448
17.63	2.93376
17.64	2.88804
17.65	2.8854
17.66	2.90777
17.67	2.91731
17.68	2.91238
17.69	2.89922
17.7	2.90152
17.71	2.88442
17.72	2.916
17.73	2.93376
17.74	2.9035
17.75	2.88837
17.76	2.90448
17.77	2.93639
17.78	2.92356
17.79	2.88376
17.8	2.90054
17.81	2.89988
17.82	2.90284
17.83	2.92159
17.84	2.92784
17.85	2.92685
17.86	2.91698
17.87	2.89856
17.88	2.90876
17.89	2.89264
17.9	2.86764
17.91	2.87685
17.92	2.88837
17.93	2.87718
17.94	2.87751
17.95	2.89725
17.96	2.90942
17.97	2.93475
17.98	2.90021
17.99	2.92159
18	2.92817
18.01	2.90876
18.02	2.9331
18.03	2.90975
18.04	2.89955
18.05	2.89166
18.06	2.90679
18.07	2.90448
18.08	2.92521
18.09	2.89791
18.1	2.89494
18.11	2.8729
18.12	2.91534
18.13	2.91468
18.14	2.90547
18.15	2.90909
18.16	2.89856
18.17	2.88935
18.18	2.91468
18.19	2.91435
18.2	2.89363
18.21	2.88244
18.22	2.89462
18.23	2.87159
18.24	2.86501
18.25	2.92356
18.26	2.90119
18.27	2.89396
18.28	2.88705
18.29	2.88902
18.3	2.93804
18.31	2.9285
18.32	2.92027
18.33	2.92422
18.34	2.90613
18.35	2.90251
18.36	2.89889
18.37	2.88902
18.38	2.9137
18.39	2.89922
18.4	2.91271
18.41	2.91172
18.42	2.916
18.43	2.92192
18.44	2.90613
18.45	2.90284
18.46	2.88935
18.47	2.90909
18.48	2.92093
18.49	2.90021
18.5	2.89725
18.51	2.89429
18.52	2.93574
18.53	2.90284
18.54	2.89758
18.55	2.93146
18.56	2.90646
18.57	2.91567
18.58	2.916
18.59	2.9137
18.6	2.90975
18.61	2.92784
18.62	2.92093
18.63	2.90679
18.64	2.91567
18.65	2.92751
18.66	2.92258
18.67	2.92225
18.68	2.90481
18.69	2.93277
18.7	2.90679
18.71	2.89791
18.72	2.89166
18.73	2.90481
18.74	2.89856
18.75	2.91995
18.76	2.9035
18.77	2.91863
18.78	2.94034
18.79	2.93343
18.8	2.92718
18.81	2.90185
18.82	2.90317
18.83	2.92916
18.84	2.89823
18.85	2.88902
18.86	2.88508
18.87	2.88672
18.88	2.87915
18.89	2.90481
18.9	2.88902
18.91	2.88968
18.92	2.92488
18.93	2.93113
18.94	2.87521
18.95	2.90218
18.96	2.9206
18.97	2.93376
18.98	2.89988
18.99	2.8785
19	2.91106
19.01	2.87718
19.02	2.92521
19.03	2.90185
19.04	2.90152
19.05	2.91896
19.06	2.88343
19.07	2.9081
19.08	2.93837
19.09	2.89429
19.1	2.91073
19.11	2.90876
19.12	2.86205
19.13	2.9035
19.14	2.92685
19.15	2.90876
19.16	2.90547
19.17	2.92751
19.18	2.92126
19.19	2.89297
19.2	2.90087
19.21	2.89626
19.22	2.90646
19.23	2.88442
19.24	2.87258
19.25	2.87488
19.26	2.87883
19.27	2.9137
19.28	2.91073
19.29	2.8808
19.3	2.87981
19.31	2.9035
19.32	2.88672
19.33	2.90218
19.34	2.90218
19.35	2.89494
19.36	2.91896
19.37	2.91666
19.38	2.91534
19.39	2.89955
19.4	2.88442
19.41	2.91567
19.42	2.89198
19.43	2.88968
19.44	2.89396
19.45	2.89396
19.46	2.90481
19.47	2.9081
19.48	2.89363
19.49	2.87751
19.5	2.88837
19.51	2.9206
19.52	2.90613
19.53	2.89527
19.54	2.8854
19.55	2.91797
19.56	2.92685
19.57	2.89889
19.58	2.88014
19.59	2.91435
19.6	2.87685
19.61	2.90679
19.62	2.90021
19.63	2.88771
19.64	2.92422
19.65	2.88606
19.66	2.88409
19.67	2.89067
19.68	2.88409
19.69	2.90547
19.7	2.89527
19.71	2.89692
19.72	2.88475
19.73	2.89889
19.74	2.88475
19.75	2.91139
19.76	2.93146
19.77	2.92422
19.78	2.9035
19.79	2.90547
19.8	2.91962
19.81	2.88935
19.82	2.87192
19.83	2.87718
19.84	2.89166
19.85	2.88902
19.86	2.91205
19.87	2.9081
19.88	2.8956
19.89	2.87652
19.9	2.87093
19.91	2.88376
19.92	2.88935
19.93	2.9183
19.94	2.90547
19.95	2.86698
19.96	2.91534
19.97	2.9206
19.98	2.91008
19.99	2.88672
20	2.90646
20.01	2.86698
20.02	2.87356
20.03	2.86863
20.04	2.87422
20.05	2.89396
20.06	2.89823
20.07	2.87356
20.08	2.89823
20.09	2.88277
20.1	2.90481
20.11	2.89955
20.12	2.91172
20.13	2.92159
20.14	2.88277
20.15	2.88047
20.16	2.89626
20.17	2.92159
20.18	2.90448
20.19	2.89626
20.2	2.89725
20.21	2.93146
20.22	2.87981
20.23	2.90185
20.24	2.90975
20.25	2.89494
20.26	2.90185
20.27	2.89166
20.28	2.8933
20.29	2.89922
20.3	2.89988
20.31	2.89133
20.32	2.85481
20.33	2.86994
20.34	2.86501
20.35	2.89264
20.36	2.90185
20.37	2.91896
20.38	2.89659
20.39	2.89067
20.4	2.88409
20.41	2.89823
20.42	2.90745
20.43	2.90416
20.44	2.90613
20.45	2.91896
20.46	2.88639
20.47	2.88014
20.48	2.90646
20.49	2.87915
20.5	2.87981
20.51	2.88146
20.52	2.8854
20.53	2.88475
20.54	2.91435
20.55	2.88343
20.56	2.85382
20.57	2.88935
20.58	2.89067
20.59	2.92258
20.6	2.87587
20.61	2.90383
20.62	2.89659
20.63	2.89988
20.64	2.90975
20.65	2.91698
20.66	2.91698
20.67	2.93903
20.68	2.91402
20.69	2.90613
20.7	2.87883
20.71	2.88179
20.72	2.89001
20.73	2.86073
20.74	2.9058
20.75	2.86863
20.76	2.90613
20.77	2.90514
20.78	2.86797
20.79	2.89725
20.8	2.90547
20.81	2.90383
20.82	2.89462
20.83	2.89593
20.84	2.88343
20.85	2.86994
20.86	2.90712
20.87	2.89823
20.88	2.89758
20.89	2.90909
20.9	2.87323
20.91	2.8956
20.92	2.93508
20.93	2.9308
20.94	2.89593
20.95	2.87488
20.96	2.89856
20.97	2.90317
20.98	2.91106
20.99	2.89856
21	2.891
21.01	2.89001
21.02	2.87619
21.03	2.87323
21.04	2.87389
21.05	2.88343
21.06	2.90547
21.07	2.87587
21.08	2.8956
21.09	2.92883
21.1	2.93047
21.11	2.93639
21.12	2.89067
21.13	2.88573
21.14	2.89856
21.15	2.88475
21.16	2.87587
21.17	2.9058
21.18	2.87915
21.19	2.88902
21.2	2.90317
21.21	2.88376
21.22	2.86534
21.23	2.88968
21.24	2.90284
21.25	2.88935
21.26	2.90876
21.27	2.86106
21.28	2.87126
21.29	2.87817
21.3	2.89067
21.31	2.89264
21.32	2.89593
21.33	2.89034
21.34	2.88935
21.35	2.91666
21.36	2.90613
21.37	2.88935
21.38	2.93014
21.39	2.9081
21.4	2.85284
21.41	2.8956
21.42	2.91205
21.43	2.89166
21.44	2.90481
21.45	2.88047
21.46	2.89856
21.47	2.90251
21.48	2.891
21.49	2.90218
21.5	2.90284
21.51	2.89494
21.52	2.89593
21.53	2.89494
21.54	2.91468
21.55	2.90416
21.56	2.88376
21.57	2.89429
21.58	2.88705
21.59	2.89363
21.6	2.91929
21.61	2.85909
21.62	2.89133
21.63	2.88376
21.64	2.90251
21.65	2.9035
21.66	2.91896
21.67	2.87685
21.68	2.92455
21.69	2.90975
21.7	2.89791
21.71	2.86665
21.72	2.87981
21.73	2.89363
21.74	2.88179
21.75	2.87192
21.76	2.87915
21.77	2.87027
21.78	2.86534
21.79	2.91238
21.8	2.86797
21.81	2.87455
21.82	2.92126
21.83	2.96271
21.84	2.92521
21.85	2.86797
21.86	2.88277
21.87	2.90613
21.88	2.87488
21.89	2.86863
21.9	2.87652
21.91	2.88179
21.92	2.87981
21.93	2.89034
21.94	2.89856
21.95	2.87027
21.96	2.91271
21.97	2.88837
21.98	2.90514
21.99	2.93146
22	2.87784
22.01	2.87554
22.02	2.89494
22.03	2.88902
22.04	2.88277
22.05	2.87225
22.06	2.89955
22.07	2.89363
22.08	2.89166
22.09	2.87883
22.1	2.89429
22.11	2.89396
22.12	2.89955
22.13	2.90087
22.14	2.89462
22.15	2.90317
22.16	2.94199
22.17	2.91929
22.18	2.87488
22.19	2.86665
22.2	2.86731
22.21	2.86435
22.22	2.87883
22.23	2.87817
22.24	2.87225
22.25	2.86698
22.26	2.92817
22.27	2.89527
22.28	2.87488
22.29	2.88179
22.3	2.85613
22.31	2.86698
22.32	2.87093
22.33	2.87981
22.34	2.87323
22.35	2.88968
22.36	2.91073
22.37	2.91534
22.38	2.89922
22.39	2.87258
22.4	2.8729
22.41	2.87751
22.42	2.8854
22.43	2.90383
22.44	2.88639
22.45	2.88705
22.46	2.89133
22.47	2.87751
22.48	2.89034
22.49	2.9081
22.5	2.94166
22.51	2.89429
22.52	2.89462
22.53	2.88014
22.54	2.88837
22.55	2.85514
22.56	2.87192
22.57	2.92159
22.58	2.90876
22.59	2.90777
22.6	2.89429
22.61	2.92324
22.62	2.87883
22.63	2.88935
22.64	2.89494
22.65	2.88639
22.66	2.86764
22.67	2.91008
22.68	2.88935
22.69	2.90613
22.7	2.90416
22.71	2.86336
22.72	2.88771
22.73	2.89758
22.74	2.92521
22.75	2.89133
22.76	2.90185
22.77	2.88804
22.78	2.86073
22.79	2.89429
22.8	2.90876
22.81	2.90679
22.82	2.90547
22.83	2.91468
22.84	2.90251
22.85	2.91995
22.86	2.87323
22.87	2.8831
22.88	2.89889
22.89	2.8808
22.9	2.87883
22.91	2.89823
22.92	2.90909
22.93	2.90054
22.94	2.86896
22.95	2.88639
22.96	2.88968
22.97	2.91468
22.98	2.92159
22.99	2.93409
23	2.89922
23.01	2.90745
23.02	2.92192
23.03	2.89922
23.04	2.9081
23.05	2.891
23.06	2.91797
23.07	2.89725
23.08	2.89034
23.09	2.89823
23.1	2.88376
23.11	2.86896
23.12	2.9058
23.13	2.88935
23.14	2.89166
23.15	2.90251
23.16	2.90251
23.17	2.86271
23.18	2.8785
23.19	2.90218
23.2	2.89659
23.21	2.89363
23.22	2.8785
23.23	2.9081
23.24	2.87751
23.25	2.86994
23.26	2.89462
23.27	2.89725
23.28	2.88179
23.29	2.86073
23.3	2.86172
23.31	2.91863
23.32	2.91402
23.33	2.88244
23.34	2.85218
23.35	2.86402
23.36	2.87751
23.37	2.86731
23.38	2.87948
23.39	2.85514
23.4	2.86205
23.41	2.89198
23.42	2.89198
23.43	2.89659
23.44	2.88738
23.45	2.87422
23.46	2.89955
23.47	2.88376
23.48	2.92356
23.49	2.90712
23.5	2.90909
23.51	2.90218
23.52	2.90054
23.53	2.89198
23.54	2.87389
23.55	2.87126
23.56	2.8956
23.57	2.92225
23.58	2.89429
23.59	2.87389
23.6	2.85547
23.61	2.89264
23.62	2.91698
23.63	2.89231
23.64	2.87685
23.65	2.87225
23.66	2.89166
23.67	2.87225
23.68	2.87751
23.69	2.89988
23.7	2.87521
23.71	2.891
23.72	2.88343
23.73	2.86896
23.74	2.8729
23.75	2.85284
23.76	2.86501
23.77	2.88508
23.78	2.86961
23.79	2.89001
23.8	2.91238
23.81	2.90317
23.82	2.90152
23.83	2.89593
23.84	2.87817
23.85	2.91468
23.86	2.90317
23.87	2.8956
23.88	2.89297
23.89	2.88014
23.9	2.85382
23.91	2.88409
23.92	2.89692
23.93	2.86238
23.94	2.89725
23.95	2.90777
23.96	2.87948
23.97	2.86534
23.98	2.87981
23.99	2.88409
24	2.89034
24.01	2.89692
24.02	2.86008
24.03	2.89396
24.04	2.8854
24.05	2.89494
24.06	2.87488
24.07	2.89856
24.08	2.89166
24.09	2.90021
24.1	2.88508
24.11	2.86271
24.12	2.8729
24.13	2.89396
24.14	2.90876
24.15	2.88475
24.16	2.84297
24.17	2.87685
24.18	2.9035
24.19	2.89198
24.2	2.87521
24.21	2.90613
24.22	2.88047
24.23	2.84494
24.24	2.87488
24.25	2.86402
24.26	2.85119
24.27	2.86271
24.28	2.91073
24.29	2.88113
24.3	2.88475
24.31	2.89856
24.32	2.87521
24.33	2.87619
24.34	2.87258
24.35	2.87751
24.36	2.86336
24.37	2.88409
24.38	2.89133
24.39	2.89955
24.4	2.91073
24.41	2.90909
24.42	2.86534
24.43	2.8456
24.44	2.88935
24.45	2.92652
24.46	2.86205
24.47	2.8808
24.48	2.89462
24.49	2.88804
24.5	2.86994
24.51	2.85547
24.52	2.90481
24.53	2.89166
24.54	2.89429
24.55	2.90251
24.56	2.8956
24.57	2.88277
24.58	2.91633
24.59	2.86994
24.6	2.87619
24.61	2.87225
24.62	2.90021
24.63	2.89264
24.64	2.8604
24.65	2.87619
24.66	2.9035
24.67	2.88014
24.68	2.87784
24.69	2.87751
24.7	2.83211
24.71	2.84659
24.72	2.87718
24.73	2.89198
24.74	2.89823
24.75	2.8706
24.76	2.86172
24.77	2.87027
24.78	2.8706
24.79	2.84856
24.8	2.8808
24.81	2.86731
24.82	2.90119
24.83	2.89626
24.84	2.86961
24.85	2.86961
24.86	2.90251
24.87	2.89396
24.88	2.88277
24.89	2.891
24.9	2.87718
24.91	2.88902
24.92	2.87587
24.93	2.90284
24.94	2.8933
24.95	2.91337
24.96	2.86402
24.97	2.86731
24.98	2.89823
24.99	2.90152
25	2.87751
25.01	2.8683
25.02	2.85942
25.03	2.89494
25.04	2.84692
25.05	2.86008
25.06	2.89856
25.07	2.90514
25.08	2.87784
25.09	2.89264
25.1	2.87159
25.11	2.87126
25.12	2.89856
25.13	2.91041
25.14	2.89527
25.15	2.89955
25.16	2.89133
25.17	2.87883
25.18	2.90218
25.19	2.92685
25.2	2.86961
25.21	2.88179
25.22	2.89133
25.23	2.87751
25.24	2.86106
25.25	2.87751
25.26	2.86633
25.27	2.91073
25.28	2.88771
25.29	2.8933
25.3	2.86205
25.31	2.87652
25.32	2.86073
25.33	2.8808
25.34	2.87422
25.35	2.88968
25.36	2.8785
25.37	2.87915
25.38	2.92981
25.39	2.88376
25.4	2.91041
25.41	2.89527
25.42	2.8808
25.43	2.90448
25.44	2.91995
25.45	2.8706
25.46	2.89692
25.47	2.86961
25.48	2.87521
25.49	2.87718
25.5	2.88968
25.51	2.88639
25.52	2.88935
25.53	2.86929
25.54	2.89363
25.55	2.89823
25.56	2.88179
25.57	2.87652
25.58	2.87488
25.59	2.90646
25.6	2.88475
25.61	2.87192
25.62	2.87718
25.63	2.88376
25.64	2.87192
25.65	2.85711
25.66	2.91172
25.67	2.87883
25.68	2.90448
25.69	2.90679
25.7	2.88113
25.71	2.88343
25.72	2.87225
25.73	2.8581
25.74	2.8706
25.75	2.8854
25.76	2.87455
25.77	2.91073
25.78	2.8808
25.79	2.8854
25.8	2.89297
25.81	2.88047
25.82	2.91567
25.83	2.87619
25.84	2.86731
25.85	2.88244
25.86	2.89001
25.87	2.89988
25.88	2.85646
25.89	2.86633
25.9	2.89626
25.91	2.89494
25.92	2.9308
25.93	2.91008
25.94	2.88475
25.95	2.88771
25.96	2.86961
25.97	2.91337
25.98	2.87619
25.99	2.87455
26	2.90021
26.01	2.90876
26.02	2.88902
26.03	2.91172
26.04	2.91041
26.05	2.87587
26.06	2.89067
26.07	2.86731
26.08	2.87192
26.09	2.87521
26.1	2.916
26.11	2.86336
26.12	2.86172
26.13	2.8604
26.14	2.89494
26.15	2.84001
26.16	2.89988
26.17	2.88902
26.18	2.92981
26.19	2.89166
26.2	2.87422
26.21	2.87652
26.22	2.90646
26.23	2.87685
26.24	2.89034
26.25	2.87455
26.26	2.85415
26.27	2.86435
26.28	2.87718
26.29	2.90416
26.3	2.89823
26.31	2.8535
26.32	2.88968
26.33	2.88902
26.34	2.86698
26.35	2.86929
26.36	2.88442
26.37	2.8831
26.38	2.89166
26.39	2.86633
26.4	2.91238
26.41	2.8785
26.42	2.88409
26.43	2.89231
26.44	2.89889
26.45	2.8785
26.46	2.89067
26.47	2.85975
26.48	2.90481
26.49	2.8854
26.5	2.89297
26.51	2.87422
26.52	2.8683
26.53	2.8808
26.54	2.91567
26.55	2.90152
26.56	2.86369
26.57	2.89725
26.58	2.88475
26.59	2.90185
26.6	2.87587
26.61	2.88376
26.62	2.89067
26.63	2.88639
26.64	2.88442
26.65	2.87455
26.66	2.88475
26.67	2.87554
26.68	2.85679
26.69	2.85218
26.7	2.87455
26.71	2.88442
26.72	2.89429
26.73	2.88146
26.74	2.891
26.75	2.891
26.76	2.88837
26.77	2.88442
26.78	2.85942
26.79	2.90119
26.8	2.89363
26.81	2.90679
26.82	2.90087
26.83	2.90087
26.84	2.86633
26.85	2.89527
26.86	2.9058
26.87	2.89791
26.88	2.89692
26.89	2.87652
26.9	2.87258
26.91	2.88442
26.92	2.93837
26.93	2.89955
26.94	2.87488
26.95	2.92027
26.96	2.91666
26.97	2.8831
26.98	2.94199
26.99	2.89001
27	2.86271
27.01	2.87817
27.02	2.87488
27.03	2.90646
27.04	2.90383
27.05	2.86764
27.06	2.86435
27.07	2.86797
27.08	2.90087
27.09	2.87225
27.1	2.87488
27.11	2.87356
27.12	2.85613
27.13	2.8808
27.14	2.86863
27.15	2.86271
27.16	2.8706
27.17	2.86764
27.18	2.86402
27.19	2.88212
27.2	2.85021
27.21	2.88508
27.22	2.89166
27.23	2.90383
27.24	2.90942
27.25	2.90712
27.26	2.86665
27.27	2.85382
27.28	2.89231
27.29	2.9081
27.3	2.89922
27.31	2.90383
27.32	2.89791
27.33	2.8831
27.34	2.8956
27.35	2.91008
27.36	2.87652
27.37	2.87192
27.38	2.91041
27.39	2.891
27.4	2.88113
27.41	2.87685
27.42	2.90251
27.43	2.8808
27.44	2.86764
27.45	2.87784
27.46	2.86961
27.47	2.92027
27.48	2.88376
27.49	2.8785
27.5	2.87915
27.51	2.89988
27.52	2.89034
27.53	2.89955
27.54	2.86665
27.55	2.8854
27.56	2.90284
27.57	2.92027
27.58	2.88672
27.59	2.85876
27.6	2.85975
27.61	2.88047
27.62	2.86929
27.63	2.91205
27.64	2.88409
27.65	2.8729
27.66	2.86271
27.67	2.87455
27.68	2.86534
27.69	2.87356
27.7	2.88179
27.71	2.90054
27.72	2.88508
27.73	2.87356
27.74	2.89527
27.75	2.89626
27.76	2.87817
27.77	2.90547
27.78	2.90909
27.79	2.88179
27.8	2.90185
27.81	2.88409
27.82	2.88047
27.83	2.87389
27.84	2.86961
27.85	2.89659
27.86	2.84165
27.87	2.88047
27.88	2.88212
27.89	2.93146
27.9	2.87587
27.91	2.87981
27.92	2.84461
27.93	2.87389
27.94	2.87521
27.95	2.87521
27.96	2.86238
27.97	2.85514
27.98	2.88212
27.99	2.86731
28	2.89889
28.01	2.88771
28.02	2.866
28.03	2.89462
28.04	2.87422
28.05	2.89692
28.06	2.92718
28.07	2.88935
28.08	2.87027
28.09	2.89231
28.1	2.87554
28.11	2.9035
28.12	2.87192
28.13	2.86731
28.14	2.88837
28.15	2.84527
28.16	2.87587
28.17	2.87883
28.18	2.88409
28.19	2.87619
28.2	2.87488
28.21	2.87718
28.22	2.88573
28.23	2.87323
28.24	2.8854
28.25	2.87915
28.26	2.90909
28.27	2.86731
28.28	2.87587
28.29	2.90119
28.3	2.8479
28.31	2.87258
28.32	2.90448
28.33	2.90712
28.34	2.92817
28.35	2.85843
28.36	2.88508
28.37	2.87521
28.38	2.88738
28.39	2.89264
28.4	2.8933
28.41	2.88343
28.42	2.8785
28.43	2.90942
28.44	2.88771
28.45	2.88902
28.46	2.87652
28.47	2.89593
28.48	2.89034
28.49	2.89692
28.5	2.8785
28.51	2.88705
28.52	2.89166
28.53	2.87126
28.54	2.84396
28.55	2.88606
28.56	2.89034
28.57	2.90876
28.58	2.89725
28.59	2.90448
28.6	2.88837
28.61	2.8604
28.62	2.89297
28.63	2.85218
28.64	2.91139
28.65	2.91435
28.66	2.9285
28.67	2.89889
28.68	2.89034
28.69	2.87554
28.7	2.89166
28.71	2.8456
28.72	2.866
28.73	2.87554
28.74	2.89889
28.75	2.86863
28.76	2.90021
28.77	2.86797
28.78	2.88244
28.79	2.88376
28.8	2.88409
28.81	2.90218
28.82	2.90416
28.83	2.86468
28.84	2.85547
28.85	2.85481
28.86	2.88146
28.87	2.88935
28.88	2.88179
28.89	2.90448
28.9	2.89856
28.91	2.88212
28.92	2.90054
28.93	2.87521
28.94	2.88475
28.95	2.89166
28.96	2.85448
28.97	2.88771
28.98	2.89034
28.99	2.87093
29	2.90777
29.01	2.90909
29.02	2.86896
29.03	2.88705
29.04	2.87554
29.05	2.86008
29.06	2.87948
29.07	2.88442
29.08	2.89166
29.09	2.91633
29.1	2.87356
29.11	2.88606
29.12	2.92751
29.13	2.86567
29.14	2.85448
29.15	2.90185
29.16	2.90514
29.17	2.88014
29.18	2.87619
29.19	2.87093
29.2	2.87685
29.21	2.88968
29.22	2.88869
29.23	2.86369
29.24	2.83475
29.25	2.87455
29.26	2.891
29.27	2.84067
29.28	2.87323
29.29	2.8808
29.3	2.8854
29.31	2.87455
29.32	2.90547
29.33	2.86073
29.34	2.8831
29.35	2.89791
29.36	2.8854
29.37	2.85744
29.38	2.88409
29.39	2.87323
29.4	2.891
29.41	2.88639
29.42	2.86764
29.43	2.91435
29.44	2.89626
29.45	2.89166
29.46	2.85975
29.47	2.88738
29.48	2.9206
29.49	2.89494
29.5	2.88573
29.51	2.86468
29.52	2.87652
29.53	2.86994
29.54	2.85679
29.55	2.88738
29.56	2.85777
29.57	2.87159
29.58	2.87817
29.59	2.85448
29.6	2.90021
29.61	2.90975
29.62	2.8785
29.63	2.86567
29.64	2.86106
29.65	2.88705
29.66	2.8785
29.67	2.87422
29.68	2.84823
29.69	2.86633
29.7	2.89133
29.71	2.84692
29.72	2.85613
29.73	2.84198
29.74	2.87948
29.75	2.88409
29.76	2.90185
29.77	2.88277
29.78	2.86468
29.79	2.85547
29.8	2.88968
29.81	2.89922
29.82	2.88705
29.83	2.87258
29.84	2.8683
29.85	2.86402
29.86	2.88212
29.87	2.92455
29.88	2.89166
29.89	2.86435
29.9	2.86731
29.91	2.866
29.92	2.8808
29.93	2.88376
29.94	2.89626
29.95	2.89922
29.96	2.87587
29.97	2.91008
29.98	2.86731
29.99	2.87389
30	2.86271
30.01	2.86238
30.02	2.92291
30.03	2.88014
30.04	2.86731
30.05	2.86238
30.06	2.86402
30.07	2.89791
30.08	2.87685
30.09	2.86633
30.1	2.89856
30.11	2.87915
30.12	2.85843
30.13	2.84823
30.14	2.87225
30.15	2.88014
30.16	2.88968
30.17	2.86633
30.18	2.90021
30.19	2.92093
30.2	2.90054
30.21	2.87948
30.22	2.88409
30.23	2.85843
30.24	2.88113
30.25	2.89856
30.26	2.85448
30.27	2.85744
30.28	2.88869
30.29	2.84626
30.3	2.8535
30.31	2.8479
30.32	2.88771
30.33	2.86106
30.34	2.85086
30.35	2.8808
30.36	2.88837
30.37	2.89264
30.38	2.85843
30.39	2.88672
30.4	2.87225
30.41	2.87784
30.42	2.89758
30.43	2.8706
30.44	2.84659
30.45	2.87356
30.46	2.89889
30.47	2.87685
30.48	2.87159
30.49	2.85514
30.5	2.85021
30.51	2.89593
30.52	2.89988
30.53	2.89823
30.54	2.87981
30.55	2.88837
30.56	2.86633
30.57	2.89363
30.58	2.86764
30.59	2.89166
30.6	2.90152
30.61	2.90218
30.62	2.90218
30.63	2.86534
30.64	2.86172
30.65	2.87619
30.66	2.85711
30.67	2.8729
30.68	2.86929
30.69	2.85777
30.7	2.86369
30.71	2.90745
30.72	2.89462
30.73	2.89133
30.74	2.85711
30.75	2.8729
30.76	2.88014
30.77	2.87817
30.78	2.87883
30.79	2.88639
30.8	2.86665
30.81	2.86172
30.82	2.85679
30.83	2.8604
30.84	2.8831
30.85	2.87948
30.86	2.88639
30.87	2.92652
30.88	2.89133
30.89	2.90942
30.9	2.91205
30.91	2.88672
30.92	2.87652
30.93	2.87225
30.94	2.88935
30.95	2.90317
30.96	2.87225
30.97	2.89001
30.98	2.89725
30.99	2.89626
31	2.86731
31.01	2.86961
31.02	2.87685
31.03	2.88014
31.04	2.88606
31.05	2.87652
31.06	2.86896
31.07	2.88705
31.08	2.8831
31.09	2.88212
31.1	2.86468
31.11	2.87685
31.12	2.86435
31.13	2.8831
31.14	2.89429
31.15	2.88771
31.16	2.88146
31.17	2.90317
31.18	2.87685
31.19	2.90054
31.2	2.87685
31.21	2.89856
31.22	2.88869
31.23	2.86797
31.24	2.90119
31.25	2.85646
31.26	2.85942
31.27	2.88014
31.28	2.86731
31.29	2.84297
31.3	2.86863
31.31	2.90251
31.32	2.88902
31.33	2.86797
31.34	2.89429
31.35	2.86271
31.36	2.88639
31.37	2.91139
31.38	2.88113
31.39	2.87784
31.4	2.91008
31.41	2.90843
31.42	2.89922
31.43	2.86468
31.44	2.8808
31.45	2.87521
31.46	2.87422
31.47	2.88475
31.48	2.87159
31.49	2.9058
31.5	2.87356
31.51	2.84264
31.52	2.87883
31.53	2.86106
31.54	2.87948
31.55	2.87455
31.56	2.84165
31.57	2.86336
31.58	2.88212
31.59	2.88277
31.6	2.89264
31.61	2.90942
31.62	2.88442
31.63	2.87554
31.64	2.86369
31.65	2.86797
31.66	2.86501
31.67	2.88146
31.68	2.89297
31.69	2.93541
31.7	2.90152
31.71	2.88113
31.72	2.87159
31.73	2.87389
31.74	2.87192
31.75	2.88146
31.76	2.88409
31.77	2.84067
31.78	2.85876
31.79	2.88672
31.8	2.89166
31.81	2.86961
31.82	2.85876
31.83	2.84955
31.84	2.88902
31.85	2.85152
31.86	2.86896
31.87	2.89133
31.88	2.89396
31.89	2.91172
31.9	2.89856
31.91	2.88113
31.92	2.84165
31.93	2.84429
31.94	2.87587
31.95	2.89626
31.96	2.85679
31.97	2.86797
31.98	2.84757
31.99	2.86271
32	2.89231
32.01	2.89823
32.02	2.85975
32.03	2.89034
32.04	2.86994
32.05	2.8535
32.06	2.89462
32.07	2.87225
32.08	2.89133
32.09	2.90284
32.1	2.89791
32.11	2.87389
32.12	2.86961
32.13	2.86008
32.14	2.86929
32.15	2.86994
32.16	2.88014
32.17	2.90646
32.18	2.84165
32.19	2.87751
32.2	2.90679
32.21	2.88146
32.22	2.84494
32.23	2.87948
32.24	2.87685
32.25	2.87258
32.26	2.86633
32.27	2.89363
32.28	2.90514
32.29	2.87619
32.3	2.8785
32.31	2.86369
32.32	2.86501
32.33	2.8433
32.34	2.87718
32.35	2.91435
32.36	2.86665
32.37	2.83606
32.38	2.86008
32.39	2.87981
32.4	2.89396
32.41	2.85777
32.42	2.8933
32.43	2.85251
32.44	2.85514
32.45	2.86797
32.46	2.88146
32.47	2.89297
32.48	2.85119
32.49	2.85448
32.5	2.90745
32.51	2.86304
32.52	2.90942
32.53	2.87619
32.54	2.87652
32.55	2.89791
32.56	2.89955
32.57	2.90317
32.58	2.90054
32.59	2.87751
32.6	2.87883
32.61	2.86534
32.62	2.87784
32.63	2.88869
32.64	2.85711
32.65	2.87323
32.66	2.87751
32.67	2.86304
32.68	2.87422
32.69	2.87915
32.7	2.84955
32.71	2.891
32.72	2.86567
32.73	2.84198
32.74	2.85975
32.75	2.87027
32.76	2.86435
32.77	2.85843
32.78	2.87159
32.79	2.88738
32.8	2.87718
32.81	2.88113
32.82	2.85942
32.83	2.89626
32.84	2.89659
32.85	2.88212
32.86	2.86073
32.87	2.89231
32.88	2.89593
32.89	2.891
32.9	2.87258
32.91	2.8558
32.92	2.84626
32.93	2.87883
32.94	2.90712
32.95	2.86665
32.96	2.89725
32.97	2.87915
32.98	2.89692
32.99	2.88047
33	2.86633
33.01	2.88409
33.02	2.90646
33.03	2.84988
33.04	2.90054
33.05	2.89363
33.06	2.88771
33.07	2.87784
33.08	2.87159
33.09	2.85547
33.1	2.88672
33.11	2.88047
33.12	2.88376
33.13	2.90481
33.14	2.88639
33.15	2.86994
33.16	2.87652
33.17	2.86698
33.18	2.89363
33.19	2.88738
33.2	2.88639
33.21	2.88047
33.22	2.86665
33.23	2.85777
33.24	2.87521
33.25	2.86435
33.26	2.87554
33.27	2.89922
33.28	2.86633
33.29	2.89494
33.3	2.87488
33.31	2.8854
33.32	2.8683
33.33	2.87521
33.34	2.85942
33.35	2.87784
33.36	2.86205
33.37	2.85054
33.38	2.8785
33.39	2.86731
33.4	2.8535
33.41	2.82652
33.42	2.87389
33.43	2.89626
33.44	2.86896
33.45	2.88837
33.46	2.87915
33.47	2.85909
33.48	2.86172
33.49	2.85777
33.5	2.88212
33.51	2.9035
33.52	2.86797
33.53	2.87685
33.54	2.88146
33.55	2.88606
33.56	2.88804
33.57	2.89231
33.58	2.87784
33.59	2.88508
33.6	2.90448
33.61	2.89133
33.62	2.86501
33.63	2.87323
33.64	2.87817
33.65	2.85514
33.66	2.86698
33.67	2.89166
33.68	2.90975
33.69	2.86534
33.7	2.86402
33.71	2.87817
33.72	2.86369
33.73	2.88244
33.74	2.84955
33.75	2.85613
33.76	2.84363
33.77	2.86633
33.78	2.86369
33.79	2.84823
33.8	2.89494
33.81	2.88244
33.82	2.87126
33.83	2.85382
33.84	2.88606
33.85	2.87192
33.86	2.88179
33.87	2.87093
33.88	2.86994
33.89	2.87192
33.9	2.89955
33.91	2.9058
33.92	2.86139
33.93	2.87619
33.94	2.89626
33.95	2.85679
33.96	2.88935
33.97	2.83771
33.98	2.84461
33.99	2.89429
34	2.89593
34.01	2.88146
34.02	2.90448
34.03	2.87554
34.04	2.88771
34.05	2.88672
34.06	2.85251
34.07	2.87258
34.08	2.87587
34.09	2.86698
34.1	2.89889
34.11	2.89067
34.12	2.8729
34.13	2.88343
34.14	2.8808
34.15	2.89791
34.16	2.85744
34.17	2.85909
34.18	2.90909
34.19	2.87718
34.2	2.87422
34.21	2.89462
34.22	2.86468
34.23	2.87389
34.24	2.89593
34.25	2.88672
34.26	2.89922
34.27	2.87554
34.28	2.87981
34.29	2.88047
34.3	2.88639
34.31	2.88146
34.32	2.86205
34.33	2.86369
34.34	2.90975
34.35	2.88902
34.36	2.88047
34.37	2.84626
34.38	2.85317
34.39	2.86336
34.4	2.87652
34.41	2.8535
34.42	2.84034
34.43	2.86929
34.44	2.8808
34.45	2.8683
34.46	2.86369
34.47	2.87981
34.48	2.85942
34.49	2.88113
34.5	2.87356
34.51	2.85843
34.52	2.85185
34.53	2.86731
34.54	2.87619
34.55	2.87981
34.56	2.91106
34.57	2.91106
34.58	2.89955
34.59	2.85251
34.6	2.85646
34.61	2.8808
34.62	2.89725
34.63	2.87948
34.64	2.87587
34.65	2.86863
34.66	2.84363
34.67	2.85448
34.68	2.89462
34.69	2.85448
34.7	2.88047
34.71	2.90218
34.72	2.88672
34.73	2.86435
34.74	2.87619
34.75	2.89856
34.76	2.89297
34.77	2.91995
34.78	2.90613
34.79	2.88277
34.8	2.87258
34.81	2.87554
34.82	2.87389
34.83	2.85382
34.84	2.84856
34.85	2.86501
34.86	2.866
34.87	2.86402
34.88	2.87192
34.89	2.87554
34.9	2.85251
34.91	2.86271
34.92	2.84922
34.93	2.86271
34.94	2.87981
34.95	2.89593
34.96	2.90383
34.97	2.86896
34.98	2.86139
34.99	2.89659
35	2.87455
35.01	2.86008
35.02	2.8729
35.03	2.88935
35.04	2.85317
35.05	2.87027
35.06	2.91337
35.07	2.86501
35.08	2.86698
35.09	2.85054
35.1	2.85613
35.11	2.87488
35.12	2.87192
35.13	2.87422
35.14	2.8683
35.15	2.85942
35.16	2.86863
35.17	2.86172
35.18	2.86139
35.19	2.89264
35.2	2.89922
35.21	2.85843
35.22	2.89659
35.23	2.88343
35.24	2.87784
35.25	2.85613
35.26	2.85218
35.27	2.84856
35.28	2.87652
35.29	2.89166
35.3	2.84132
35.31	2.88902
35.32	2.88244
35.33	2.88146
35.34	2.9081
35.35	2.90119
35.36	2.86994
35.37	2.85481
35.38	2.89922
35.39	2.88376
35.4	2.88869
35.41	2.86271
35.42	2.86304
35.43	2.87455
35.44	2.8831
35.45	2.84692
35.46	2.891
35.47	2.89725
35.48	2.86238
35.49	2.87652
35.5	2.87981
35.51	2.90777
35.52	2.89758
35.53	2.88869
35.54	2.86304
35.55	2.87883
35.56	2.85711
35.57	2.84264
35.58	2.87554
35.59	2.87389
35.6	2.88508
35.61	2.88639
35.62	2.89429
35.63	2.86896
35.64	2.89462
35.65	2.89001
35.66	2.88935
35.67	2.86961
35.68	2.85679
35.69	2.88869
35.7	2.88573
35.71	2.84955
35.72	2.82948
35.73	2.86238
35.74	2.87784
35.75	2.88277
35.76	2.86501
35.77	2.87619
35.78	2.84067
35.79	2.8729
35.8	2.89462
35.81	2.8831
35.82	2.87356
35.83	2.8729
35.84	2.86139
35.85	2.86764
35.86	2.86961
35.87	2.8729
35.88	2.89166
35.89	2.86435
35.9	2.85777
35.91	2.89034
35.92	2.88672
35.93	2.89626
35.94	2.85777
35.95	2.8729
35.96	2.87093
35.97	2.90087
35.98	2.91534
35.99	2.87685
36	2.88902
36.01	2.8706
36.02	2.85942
36.03	2.84001
36.04	2.8808
36.05	2.87554
36.06	2.89264
36.07	2.86205
36.08	2.86435
36.09	2.85547
36.1	2.89067
36.11	2.86929
36.12	2.87981
36.13	2.84922
36.14	2.84396
36.15	2.88573
36.16	2.85777
36.17	2.86534
36.18	2.87521
36.19	2.89034
36.2	2.87652
36.21	2.88212
36.22	2.85909
36.23	2.87948
36.24	2.8729
36.25	2.86698
36.26	2.89166
36.27	2.89692
36.28	2.88804
36.29	2.88804
36.3	2.88771
36.31	2.89231
36.32	2.90613
36.33	2.89626
36.34	2.86698
36.35	2.87784
36.36	2.84988
36.37	2.89166
36.38	2.89626
36.39	2.86008
36.4	2.8604
36.41	2.86633
36.42	2.87455
36.43	2.9058
36.44	2.87422
36.45	2.87389
36.46	2.87521
36.47	2.88902
36.48	2.86665
36.49	2.91402
36.5	2.84626
36.51	2.8479
36.52	2.86172
36.53	2.89791
36.54	2.90021
36.55	2.84988
36.56	2.86534
36.57	2.88212
36.58	2.90317
36.59	2.91435
36.6	2.88179
36.61	2.86205
36.62	2.87422
36.63	2.86961
36.64	2.86172
36.65	2.85317
36.66	2.86205
36.67	2.83639
36.68	2.85086
36.69	2.84725
36.7	2.84757
36.71	2.841
36.72	2.86863
36.73	2.85218
36.74	2.89429
36.75	2.88902
36.76	2.87784
36.77	2.89166
36.78	2.87915
36.79	2.87225
36.8	2.85679
36.81	2.89659
36.82	2.88343
36.83	2.86633
36.84	2.89166
36.85	2.89297
36.86	2.87718
36.87	2.86896
36.88	2.8729
36.89	2.84823
36.9	2.86468
36.91	2.89494
36.92	2.86238
36.93	2.88244
36.94	2.88179
36.95	2.89725
36.96	2.88146
36.97	2.85185
36.98	2.88442
36.99	2.88771
37	2.88804
37.01	2.85711
37.02	2.86665
37.03	2.91633
37.04	2.88869
37.05	2.90119
37.06	2.86797
37.07	2.85284
37.08	2.87356
37.09	2.87258
37.1	2.90152
37.11	2.89527
37.12	2.86501
37.13	2.85942
37.14	2.8558
37.15	2.90218
37.16	2.87126
37.17	2.87323
37.18	2.85679
37.19	2.84955
37.2	2.91666
37.21	2.89758
37.22	2.87258
37.23	2.92291
37.24	2.8854
37.25	2.85646
37.26	2.88376
37.27	2.86369
37.28	2.89067
37.29	2.88047
37.3	2.83705
37.31	2.8729
37.32	2.88968
37.33	2.88935
37.34	2.88837
37.35	2.9262
37.36	2.88672
37.37	2.8558
37.38	2.86633
37.39	2.8535
37.4	2.86764
37.41	2.84922
37.42	2.88343
37.43	2.84823
37.44	2.86994
37.45	2.87159
37.46	2.88014
37.47	2.90843
37.48	2.90218
37.49	2.916
37.5	2.89429
37.51	2.8683
37.52	2.86008
37.53	2.87751
37.54	2.88705
37.55	2.89297
37.56	2.8831
37.57	2.86501
37.58	2.8581
37.59	2.88475
37.6	2.89889
37.61	2.86665
37.62	2.86863
37.63	2.86863
37.64	2.89363
37.65	2.90745
37.66	2.88113
37.67	2.86896
37.68	2.85777
37.69	2.87159
37.7	2.85185
37.71	2.86896
37.72	2.87652
37.73	2.89034
37.74	2.90613
37.75	2.87521
37.76	2.87192
37.77	2.89133
37.78	2.89988
37.79	2.87159
37.8	2.87751
37.81	2.87652
37.82	2.89659
37.83	2.89659
37.84	2.90284
37.85	2.90152
37.86	2.86271
37.87	2.86139
37.88	2.87159
37.89	2.88277
37.9	2.8729
37.91	2.87521
37.92	2.87554
37.93	2.87817
37.94	2.88869
37.95	2.86797
37.96	2.8683
37.97	2.85744
37.98	2.87521
37.99	2.91797
38	2.89067
38.01	2.87521
38.02	2.89396
38.03	2.88672
38.04	2.88869
38.05	2.85152
38.06	2.88179
38.07	2.88837
38.08	2.89791
38.09	2.86238
38.1	2.86501
38.11	2.88212
38.12	2.891
38.13	2.88442
38.14	2.89001
38.15	2.89396
38.16	2.85317
38.17	2.87422
38.18	2.86731
38.19	2.85646
38.2	2.88179
38.21	2.86468
38.22	2.87521
38.23	2.88606
38.24	2.86994
38.25	2.92126
38.26	2.89034
38.27	2.86304
38.28	2.88212
38.29	2.91041
38.3	2.85514
38.31	2.8933
38.32	2.88179
38.33	2.88672
38.34	2.87027
38.35	2.84889
38.36	2.91139
38.37	2.9433
38.38	2.88738
38.39	2.8854
38.4	2.9035
38.41	2.87981
38.42	2.86633
38.43	2.86336
38.44	2.88606
38.45	2.88935
38.46	2.89133
38.47	2.87455
38.48	2.86501
38.49	2.86139
38.5	2.90416
38.51	2.8854
38.52	2.8456
38.53	2.90021
38.54	2.87587
38.55	2.86731
38.56	2.8706
38.57	2.86764
38.58	2.8558
38.59	2.89494
38.6	2.86369
38.61	2.85777
38.62	2.87356
38.63	2.87027
38.64	2.89034
38.65	2.87883
38.66	2.84494
38.67	2.83869
38.68	2.86402
38.69	2.86731
38.7	2.85876
38.71	2.89955
38.72	2.92093
38.73	2.87356
38.74	2.90218
38.75	2.88179
38.76	2.87883
38.77	2.88212
38.78	2.83672
38.79	2.82126
38.8	2.84527
38.81	2.86369
38.82	2.88639
38.83	2.90152
38.84	2.90317
38.85	2.86369
38.86	2.91304
38.87	2.86468
38.88	2.86665
38.89	2.8785
38.9	2.87915
38.91	2.86665
38.92	2.87356
38.93	2.85251
38.94	2.85021
38.95	2.86139
38.96	2.86435
38.97	2.86501
38.98	2.88179
38.99	2.88738
39	2.87258
39.01	2.88179
39.02	2.88804
39.03	2.89626
39.04	2.88869
39.05	2.84067
39.06	2.85744
39.07	2.86863
39.08	2.89001
39.09	2.86929
39.1	2.86731
39.11	2.86402
39.12	2.85876
39.13	2.86106
39.14	2.88902
39.15	2.89001
39.16	2.86863
39.17	2.87948
39.18	2.85251
39.19	2.87948
39.2	2.87192
39.21	2.86073
39.22	2.86896
39.23	2.85679
39.24	2.88343
39.25	2.87784
39.26	2.88475
39.27	2.88902
39.28	2.8956
39.29	2.90218
39.3	2.86731
39.31	2.8706
39.32	2.88014
39.33	2.90119
39.34	2.88935
39.35	2.85448
39.36	2.86468
39.37	2.89922
39.38	2.8785
39.39	2.88672
39.4	2.89856
39.41	2.84692
39.42	2.84725
39.43	2.85942
39.44	2.84593
39.45	2.89462
39.46	2.89264
39.47	2.88376
39.48	2.88968
39.49	2.87817
39.5	2.87915
39.51	2.86929
39.52	2.88968
39.53	2.88277
39.54	2.86402
39.55	2.88146
39.56	2.83343
39.57	2.89363
39.58	2.87981
39.59	2.89494
39.6	2.89889
39.61	2.89034
39.62	2.85843
39.63	2.89462
39.64	2.87422
39.65	2.88244
39.66	2.84955
39.67	2.85679
39.68	2.89396
39.69	2.87784
39.7	2.87554
39.71	2.8729
39.72	2.85021
39.73	2.84922
39.74	2.87093
39.75	2.866
39.76	2.88376
39.77	2.9058
39.78	2.88804
39.79	2.91106
39.8	2.8706
39.81	2.87093
39.82	2.89494
39.83	2.8854
39.84	2.87554
39.85	2.88014
39.86	2.8558
39.87	2.86567
39.88	2.83935
39.89	2.8558
39.9	2.86764
39.91	2.88837
39.92	2.85843
39.93	2.9058
39.94	2.88705
39.95	2.86633
39.96	2.88475
39.97	2.86929
39.98	2.87751
39.99	2.86698
40	2.89231
40.01	2.88902
40.02	2.90481
40.03	2.9183
40.04	2.88212
40.05	2.88146
40.06	2.89626
40.07	2.87652
40.08	2.86797
40.09	2.85251
40.1	2.85646
40.11	2.89166
40.12	2.89856
40.13	2.88047
40.14	2.87159
40.15	2.8729
40.16	2.86435
40.17	2.89823
40.18	2.90547
40.19	2.84823
40.2	2.89198
40.21	2.90119
40.22	2.86139
40.23	2.87685
40.24	2.86172
40.25	2.88277
40.26	2.87817
40.27	2.86139
40.28	2.90646
40.29	2.86929
40.3	2.85711
40.31	2.8683
40.32	2.88738
40.33	2.88902
40.34	2.86238
40.35	2.88804
40.36	2.8831
40.37	2.83178
40.38	2.88738
40.39	2.88343
40.4	2.88935
40.41	2.85711
40.42	2.85876
40.43	2.87356
40.44	2.88343
40.45	2.86501
40.46	2.83738
40.47	2.89001
40.48	2.88508
40.49	2.8604
40.5	2.85909
40.51	2.86369
40.52	2.83935
40.53	2.85086
40.54	2.89001
40.55	2.88738
40.56	2.90712
40.57	2.89659
40.58	2.89758
40.59	2.8456
40.6	2.84988
40.61	2.88113
40.62	2.88277
40.63	2.91666
40.64	2.89034
40.65	2.87883
40.66	2.87521
40.67	2.90054
40.68	2.90218
40.69	2.88672
40.7	2.91337
40.71	2.90152
40.72	2.866
40.73	2.85777
40.74	2.8729
40.75	2.89034
40.76	2.86008
40.77	2.8933
40.78	2.88804
40.79	2.87619
40.8	2.87948
40.81	2.87685
40.82	2.8933
40.83	2.89363
40.84	2.87488
40.85	2.90613
40.86	2.88179
40.87	2.87685
40.88	2.87225
40.89	2.87455
40.9	2.88212
40.91	2.89264
40.92	2.85152
40.93	2.89823
40.94	2.89889
40.95	2.88738
40.96	2.88113
40.97	2.89659
40.98	2.88244
40.99	2.89758
41	2.89922
41.01	2.89231
41.02	2.89823
41.03	2.8854
41.04	2.89823
41.05	2.87685
41.06	2.87356
41.07	2.86336
41.08	2.85975
41.09	2.84132
41.1	2.8558
41.11	2.86896
41.12	2.88409
41.13	2.88343
41.14	2.91041
41.15	2.87225
41.16	2.86172
41.17	2.89001
41.18	2.90843
41.19	2.8683
41.2	2.86797
41.21	2.89166
41.22	2.91402
41.23	2.87554
41.24	2.88968
41.25	2.88212
41.26	2.85152
41.27	2.86534
41.28	2.88705
41.29	2.87027
41.3	2.85744
41.31	2.83442
41.32	2.8831
41.33	2.87488
41.34	2.88804
41.35	2.87126
41.36	2.87093
41.37	2.89133
41.38	2.88837
41.39	2.87192
41.4	2.86369
41.41	2.87554
41.42	2.87652
41.43	2.84001
41.44	2.86304
41.45	2.87981
41.46	2.88606
41.47	2.84626
41.48	2.88179
41.49	2.88672
41.5	2.9081
41.51	2.87389
41.52	2.8808
41.53	2.89692
41.54	2.87488
41.55	2.88212
41.56	2.85547
41.57	2.88672
41.58	2.8808
41.59	2.87093
41.6	2.8706
41.61	2.87488
41.62	2.87718
41.63	2.86238
41.64	2.89725
41.65	2.9137
41.66	2.90745
41.67	2.88869
41.68	2.89889
41.69	2.89264
41.7	2.87126
41.71	2.84494
41.72	2.88968
41.73	2.8558
41.74	2.87554
41.75	2.87751
41.76	2.88639
41.77	2.86764
41.78	2.91435
41.79	2.92718
41.8	2.88146
41.81	2.84659
41.82	2.85547
41.83	2.87685
41.84	2.87915
41.85	2.87389
41.86	2.86402
41.87	2.87126
41.88	2.88902
41.89	2.85909
41.9	2.86929
41.91	2.88573
41.92	2.91205
41.93	2.84955
41.94	2.87389
41.95	2.89922
41.96	2.8933
41.97	2.87817
41.98	2.88343
41.99	2.8729
42	2.84593
42.01	2.85942
42.02	2.88804
42.03	2.86271
42.04	2.87323
42.05	2.87455
42.06	2.86336
42.07	2.84955
42.08	2.87356
42.09	2.86896
42.1	2.88639
42.11	2.86731
42.12	2.85909
42.13	2.86731
42.14	2.89198
42.15	2.88113
42.16	2.8604
42.17	2.8808
42.18	2.87093
42.19	2.88146
42.2	2.89429
42.21	2.89067
42.22	2.89133
42.23	2.87389
42.24	2.86567
42.25	2.87784
42.26	2.8604
42.27	2.83705
42.28	2.89264
42.29	2.87225
42.3	2.89593
42.31	2.90152
42.32	2.88113
42.33	2.87356
42.34	2.89889
42.35	2.8854
42.36	2.86929
42.37	2.88409
42.38	2.8683
42.39	2.83902
42.4	2.83475
42.41	2.82356
42.42	2.83771
42.43	2.89363
42.44	2.87948
42.45	2.87652
42.46	2.87948
42.47	2.89198
42.48	2.87455
42.49	2.86205
42.5	2.86139
42.51	2.87751
42.52	2.87883
42.53	2.88475
42.54	2.89922
42.55	2.88212
42.56	2.91501
42.57	2.90712
42.58	2.88442
42.59	2.88639
42.6	2.86369
42.61	2.85382
42.62	2.84165
42.63	2.86698
42.64	2.87258
42.65	2.9035
42.66	2.88672
42.67	2.87817
42.68	2.88606
42.69	2.89363
42.7	2.8808
42.71	2.88902
42.72	2.89067
42.73	2.89889
42.74	2.90547
42.75	2.89297
42.76	2.86698
42.77	2.87422
42.78	2.86172
42.79	2.86205
42.8	2.88113
42.81	2.8785
42.82	2.86665
42.83	2.86501
42.84	2.86271
42.85	2.86534
42.86	2.89001
42.87	2.88212
42.88	2.87455
42.89	2.84889
42.9	2.87455
42.91	2.88804
42.92	2.86336
42.93	2.84823
42.94	2.88869
42.95	2.88409
42.96	2.89198
42.97	2.85152
42.98	2.8831
42.99	2.89429
43	2.88343
43.01	2.84231
43.02	2.85054
43.03	2.86304
43.04	2.89363
43.05	2.8581
43.06	2.86731
43.07	2.87652
43.08	2.91468
43.09	2.89955
43.1	2.86435
43.11	2.87126
43.12	2.88409
43.13	2.88837
43.14	2.90745
43.15	2.90284
43.16	2.8456
43.17	2.87027
43.18	2.89791
43.19	2.9058
43.2	2.89001
43.21	2.8558
43.22	2.84856
43.23	2.87455
43.24	2.90712
43.25	2.84593
43.26	2.8683
43.27	2.87192
43.28	2.84955
43.29	2.86764
43.3	2.88343
43.31	2.87915
43.32	2.86764
43.33	2.88475
43.34	2.89462
43.35	2.85514
43.36	2.88672
43.37	2.86139
43.38	2.87948
43.39	2.87192
43.4	2.90613
43.41	2.88935
43.42	2.88277
43.43	2.84955
43.44	2.89396
43.45	2.90481
43.46	2.84757
43.47	2.8456
43.48	2.85086
43.49	2.83968
43.5	2.8604
43.51	2.88968
43.52	2.87323
43.53	2.90087
43.54	2.89758
43.55	2.84856
43.56	2.86994
43.57	2.90843
43.58	2.85744
43.59	2.92981
43.6	2.87488
43.61	2.90481
43.62	2.90547
43.63	2.87521
43.64	2.8683
43.65	2.86698
43.66	2.87225
43.67	2.86435
43.68	2.89758
43.69	2.88475
43.7	2.86468
43.71	2.88244
43.72	2.88573
43.73	2.88113
43.74	2.91468
43.75	2.90547
43.76	2.88179
43.77	2.83639
43.78	2.85054
43.79	2.86435
43.8	2.90185
43.81	2.87258
43.82	2.90745
43.83	2.90777
43.84	2.86896
43.85	2.87126
43.86	2.88277
43.87	2.86402
43.88	2.85185
43.89	2.89462
43.9	2.9387
43.91	2.89198
43.92	2.87488
43.93	2.86336
43.94	2.86369
43.95	2.87225
43.96	2.89067
43.97	2.8604
43.98	2.91304
43.99	2.87159
44	2.85777
44.01	2.88902
44.02	2.88244
44.03	2.87587
44.04	2.87751
44.05	2.85547
44.06	2.89231
44.07	2.88343
44.08	2.85218
44.09	2.8956
44.1	2.90054
44.11	2.8785
44.12	2.89166
44.13	2.84494
44.14	2.84593
44.15	2.85876
44.16	2.87652
44.17	2.88738
44.18	2.90646
44.19	2.89626
44.2	2.88277
44.21	2.91172
44.22	2.90843
44.23	2.90679
44.24	2.87521
44.25	2.85382
44.26	2.87521
44.27	2.87718
44.28	2.87915
44.29	2.86271
44.3	2.87718
44.31	2.88705
44.32	2.91139
44.33	2.88179
44.34	2.86994
44.35	2.91073
44.36	2.88146
44.37	2.87027
44.38	2.87817
44.39	2.87027
44.4	2.86238
44.41	2.91205
44.42	2.89396
44.43	2.90119
44.44	2.88804
44.45	2.91106
44.46	2.90481
44.47	2.866
44.48	2.88935
44.49	2.86929
44.5	2.85415
44.51	2.87488
44.52	2.88837
44.53	2.8354
44.54	2.87422
44.55	2.86369
44.56	2.87455
44.57	2.84659
44.58	2.87915
44.59	2.87883
44.6	2.85942
44.61	2.88179
44.62	2.88738
44.63	2.89494
44.64	2.88343
44.65	2.89264
44.66	2.91797
44.67	2.89396
44.68	2.87948
44.69	2.8456
44.7	2.86896
44.71	2.89198
44.72	2.92225
44.73	2.9081
44.74	2.88442
44.75	2.90284
44.76	2.91402
44.77	2.88212
44.78	2.88244
44.79	2.88244
44.8	2.88244
44.81	2.89133
44.82	2.91435
44.83	2.88014
44.84	2.90152
44.85	2.86501
44.86	2.87587
44.87	2.87883
44.88	2.87126
44.89	2.87356
44.9	2.88935
44.91	2.88277
44.92	2.85711
44.93	2.88376
44.94	2.87027
44.95	2.89626
44.96	2.90087
44.97	2.89166
44.98	2.85975
44.99	2.88705
45	2.87488
45.01	2.90514
45.02	2.88902
45.03	2.88179
45.04	2.8535
45.05	2.86534
45.06	2.87652
45.07	2.89823
45.08	2.8854
45.09	2.88771
45.1	2.86863
45.11	2.85284
45.12	2.86172
45.13	2.87521
45.14	2.88804
45.15	2.86929
45.16	2.85415
45.17	2.85152
45.18	2.86863
45.19	2.86929
45.2	2.87619
45.21	2.90942
45.22	2.87817
45.23	2.90119
45.24	2.86961
45.25	2.87652
45.26	2.89692
45.27	2.89856
45.28	2.89166
45.29	2.87323
45.3	2.86073
45.31	2.86929
45.32	2.88705
45.33	2.88146
45.34	2.8706
45.35	2.87784
45.36	2.91698
45.37	2.86073
45.38	2.87488
45.39	2.87619
45.4	2.89001
45.41	2.85284
45.42	2.85547
45.43	2.88409
45.44	2.88244
45.45	2.90416
45.46	2.86961
45.47	2.87488
45.48	2.85185
45.49	2.88606
45.5	2.90942
45.51	2.87751
45.52	2.86633
45.53	2.89791
45.54	2.90251
45.55	2.87619
45.56	2.88738
45.57	2.88014
45.58	2.86139
45.59	2.87093
45.6	2.88277
45.61	2.89791
45.62	2.86929
45.63	2.83705
45.64	2.89001
45.65	2.86238
45.66	2.84823
45.67	2.85679
45.68	2.85909
45.69	2.86008
45.7	2.86567
45.71	2.85843
45.72	2.90909
45.73	2.89626
45.74	2.87159
45.75	2.88244
45.76	2.89988
45.77	2.86435
45.78	2.85481
45.79	2.84659
45.8	2.8581
45.81	2.88837
45.82	2.91205
45.83	2.89166
45.84	2.8808
45.85	2.90448
45.86	2.87948
45.87	2.89001
45.88	2.89363
45.89	2.89527
45.9	2.85218
45.91	2.86106
45.92	2.87751
45.93	2.90613
45.94	2.88146
45.95	2.85514
45.96	2.86073
45.97	2.85185
45.98	2.90317
45.99	2.89363
46	2.88968
46.01	2.8785
46.02	2.89692
46.03	2.86402
46.04	2.89166
46.05	2.90942
46.06	2.88902
46.07	2.89494
46.08	2.88639
46.09	2.88244
46.1	2.89067
46.11	2.85251
46.12	2.86008
46.13	2.85152
46.14	2.88738
46.15	2.89988
46.16	2.84001
46.17	2.84527
46.18	2.86896
46.19	2.85284
46.2	2.84692
46.21	2.86435
46.22	2.88738
46.23	2.90712
46.24	2.86731
46.25	2.87718
46.26	2.88442
46.27	2.87126
46.28	2.90317
46.29	2.91041
46.3	2.89231
46.31	2.84725
46.32	2.88179
46.33	2.90777
46.34	2.88343
46.35	2.84955
46.36	2.86929
46.37	2.85054
46.38	2.85054
46.39	2.87159
46.4	2.87422
46.41	2.87192
46.42	2.85843
46.43	2.90613
46.44	2.85415
46.45	2.83146
46.46	2.82751
46.47	2.87159
46.48	2.89988
46.49	2.88343
46.5	2.84988
46.51	2.87817
46.52	2.87521
46.53	2.87817
46.54	2.87587
46.55	2.85646
46.56	2.86863
46.57	2.89823
46.58	2.90218
46.59	2.87225
46.6	2.84757
46.61	2.88869
46.62	2.86238
46.63	2.87488
46.64	2.85744
46.65	2.91435
46.66	2.89725
46.67	2.85646
46.68	2.84363
46.69	2.87554
46.7	2.87225
46.71	2.86402
46.72	2.90054
46.73	2.86336
46.74	2.85975
46.75	2.86567
46.76	2.87619
46.77	2.88672
46.78	2.8956
46.79	2.89297
46.8	2.8604
46.81	2.84396
46.82	2.89396
46.83	2.90152
46.84	2.87258
46.85	2.85152
46.86	2.87225
46.87	2.86567
46.88	2.87356
46.89	2.85415
46.9	2.85613
46.91	2.891
46.92	2.87488
46.93	2.87915
46.94	2.85843
46.95	2.84823
46.96	2.87915
46.97	2.86929
46.98	2.8785
46.99	2.84034
47	2.86994
47.01	2.87652
47.02	2.89231
47.03	2.89494
47.04	2.89856
47.05	2.88935
47.06	2.91633
47.07	2.866
47.08	2.88475
47.09	2.89988
47.1	2.88902
47.11	2.866
47.12	2.85448
47.13	2.90317
47.14	2.8956
47.15	2.88475
47.16	2.89231
47.17	2.89231
47.18	2.86139
47.19	2.86271
47.2	2.8831
47.21	2.8854
47.22	2.866
47.23	2.84955
47.24	2.86172
47.25	2.86797
47.26	2.85876
47.27	2.87817
47.28	2.85448
47.29	2.88968
47.3	2.8729
47.31	2.89791
47.32	2.87488
47.33	2.87258
47.34	2.85646
47.35	2.85481
47.36	2.85942
47.37	2.89198
47.38	2.85975
47.39	2.88277
47.4	2.87751
47.41	2.90087
47.42	2.85975
47.43	2.84494
47.44	2.83869
47.45	2.87488
47.46	2.87192
47.47	2.86961
47.48	2.89001
47.49	2.89034
47.5	2.84264
47.51	2.84889
47.52	2.83343
47.53	2.86238
47.54	2.87159
47.55	2.87192
47.56	2.84889
47.57	2.87323
47.58	2.91008
47.59	2.88738
47.6	2.8706
47.61	2.87948
47.62	2.891
47.63	2.89067
47.64	2.86567
47.65	2.90547
47.66	2.87784
47.67	2.8854
47.68	2.87455
47.69	2.8456
47.7	2.87521
47.71	2.87027
47.72	2.86073
47.73	2.83113
47.74	2.87784
47.75	2.86172
47.76	2.89462
47.77	2.8808
47.78	2.8831
47.79	2.87126
47.8	2.87915
47.81	2.86698
47.82	2.88573
47.83	2.89593
47.84	2.87718
47.85	2.87422
47.86	2.87488
47.87	2.8831
47.88	2.9058
47.89	2.90152
47.9	2.89166
47.91	2.87323
47.92	2.86008
47.93	2.85218
47.94	2.87389
47.95	2.87521
47.96	2.86271
47.97	2.88935
47.98	2.88902
47.99	2.87159
48	2.86863
48.01	2.85646
48.02	2.88672
48.03	2.86731
48.04	2.86073
48.05	2.85317
48.06	2.87027
48.07	2.88935
48.08	2.87948
48.09	2.88771
48.1	2.88771
48.11	2.89494
48.12	2.89527
48.13	2.89396
48.14	2.87455
48.15	2.87817
48.16	2.88705
48.17	2.89264
48.18	2.91567
48.19	2.8956
48.2	2.91435
48.21	2.88508
48.22	2.82784
48.23	2.84165
48.24	2.89198
48.25	2.87718
48.26	2.86534
48.27	2.88804
48.28	2.85909
48.29	2.89396
48.3	2.89922
48.31	2.85909
48.32	2.8558
48.33	2.88935
48.34	2.86402
48.35	2.8808
48.36	2.85909
48.37	2.85975
48.38	2.86633
48.39	2.8933
48.4	2.89626
48.41	2.90218
48.42	2.87093
48.43	2.8683
48.44	2.86304
48.45	2.84593
48.46	2.87751
48.47	2.84922
48.48	2.8706
48.49	2.85514
48.5	2.86961
48.51	2.87981
48.52	2.85481
48.53	2.87521
48.54	2.90317
48.55	2.88146
48.56	2.88639
48.57	2.87521
48.58	2.91501
48.59	2.88705
48.6	2.87981
48.61	2.88771
48.62	2.88146
48.63	2.86008
48.64	2.81599
48.65	2.8683
48.66	2.8729
48.67	2.89692
48.68	2.88343
48.69	2.89429
48.7	2.87554
48.71	2.86336
48.72	2.85547
48.73	2.89889
48.74	2.90087
48.75	2.86797
48.76	2.86863
48.77	2.89363
48.78	2.8831
48.79	2.88639
48.8	2.86764
48.81	2.86271
48.82	2.89462
48.83	2.8535
48.84	2.87685
48.85	2.87817
48.86	2.88409
48.87	2.92324
48.88	2.87619
48.89	2.88705
48.9	2.89297
48.91	2.84429
48.92	2.88804
48.93	2.88804
48.94	2.86698
48.95	2.85021
48.96	2.89034
48.97	2.88244
48.98	2.8956
48.99	2.88376
49	2.88869
49.01	2.86731
49.02	2.83803
49.03	2.87455
49.04	2.87192
49.05	2.90514
49.06	2.86633
49.07	2.86665
49.08	2.88508
49.09	2.87883
49.1	2.90317
49.11	2.86402
49.12	2.89363
49.13	2.90251
49.14	2.89396
49.15	2.89791
49.16	2.86633
49.17	2.90745
49.18	2.88902
49.19	2.88179
49.2	2.90712
49.21	2.87455
49.22	2.8683
49.23	2.86731
49.24	2.88113
49.25	2.88179
49.26	2.87323
49.27	2.86665
49.28	2.87751
49.29	2.84231
49.3	2.82751
49.31	2.87521
49.32	2.87718
49.33	2.87981
49.34	2.85613
49.35	2.85415
49.36	2.85152
49.37	2.87784
49.38	2.86008
49.39	2.87356
49.4	2.86961
49.41	2.87225
49.42	2.86929
49.43	2.85251
49.44	2.85448
49.45	2.82619
49.46	2.84461
49.47	2.85909
49.48	2.87323
49.49	2.90613
49.5	2.88475
49.51	2.85942
49.52	2.85218
49.53	2.90185
49.54	2.90777
49.55	2.87915
49.56	2.90613
49.57	2.88277
49.58	2.84988
49.59	2.88475
49.6	2.88968
49.61	2.86402
49.62	2.87915
49.63	2.86994
49.64	2.88113
49.65	2.86665
49.66	2.90712
49.67	2.85086
49.68	2.87948
49.69	2.8808
49.7	2.88771
49.71	2.87915
49.72	2.91797
49.73	2.93771
49.74	2.89791
49.75	2.88212
49.76	2.89659
49.77	2.8604
49.78	2.8729
49.79	2.87619
49.8	2.8808
49.81	2.86304
49.82	2.87619
49.83	2.89922
49.84	2.90416
49.85	2.91008
49.86	2.89297
49.87	2.91073
49.88	2.87883
49.89	2.86961
49.9	2.86501
49.91	2.86633
49.92	2.89955
49.93	2.8785
49.94	2.83705
49.95	2.85251
49.96	2.89758
49.97	2.89856
49.98	2.88343
49.99	2.87323
50	2.87784
