"BIO-KINE ASCII FILE"
"_COMMENT"	"MOS-500 Spectrometer"
"_COMMENT"	"Kinetics measurement"
"_COMMENT"	"Y Unit : Volt,  X Unit : s"
"_COMMENT"	"Excitation wavelength : 380 nm"
"_COMMENT"	"Fentes bandwidth =  1 nm"
"_COMMENT"	"HV= 1000V"
"_COMMENT"	"Timebase  1 =  .01 s   5001 pts"
"_SFM"	"SFM-400 /S  Advanced mode"
"_SFM"	"Ratio : S1: 2.5, S2: 0, S3: 0, S4: 1"
"_SFM"	"Content : S1: , S2: , S3: , S4:"
"_SFM"	"Concentration : S1: , S2: , S3: , S4:"
"_SFM"	"Total volume : 209 µl  Flow : 3.5 mL/s"
"_SFM"	"Acquisition start :  10 ms before stop"
"_SFM"	"cuve=FC-15, s1=10 ml , s2=10 ml , s3=10 ml , s4=1.9 ml"
"_UNITX"	"s"
"_UNITY"	"Volt"
"_DELTAX"	0
"_DATA"
1e-300	2.69823
0.01	2.68639
0.02	2.66829
0.03	2.70678
0.04	2.77882
0.05	2.82488
0.06	2.79264
0.07	2.78376
0.08	2.82356
0.09	2.88113
0.1	2.85021
0.11	2.87751
0.12	2.84757
0.13	2.81863
0.14	2.84363
0.15	2.84823
0.16	2.87784
0.17	2.86764
0.18	2.84626
0.19	2.89264
0.2	2.87915
0.21	2.86961
0.22	2.90777
0.23	2.88244
0.24	2.88705
0.25	2.90185
0.26	2.88639
0.27	2.90218
0.28	2.8956
0.29	2.88639
0.3	2.90613
0.31	2.916
0.32	2.90284
0.33	2.91534
0.34	2.89133
0.35	2.88244
0.36	2.86238
0.37	2.87225
0.38	2.87685
0.39	2.90481
0.4	2.91962
0.41	2.9035
0.42	2.92685
0.43	2.89462
0.44	2.84067
0.45	2.87718
0.46	2.9137
0.47	2.88639
0.48	2.89988
0.49	2.89198
0.5	2.90021
0.51	2.90021
0.52	2.90416
0.53	2.91863
0.54	2.86665
0.55	2.90218
0.56	2.88277
0.57	2.89494
0.58	2.89297
0.59	2.8956
0.6	2.91666
0.61	2.87258
0.62	2.89462
0.63	2.9206
0.64	2.891
0.65	2.91896
0.66	2.88343
0.67	2.88409
0.68	2.90613
0.69	2.89626
0.7	2.89231
0.71	2.89692
0.72	2.90547
0.73	2.85547
0.74	2.86369
0.75	2.87652
0.76	2.89034
0.77	2.89692
0.78	2.88409
0.79	2.88606
0.8	2.90251
0.81	2.8831
0.82	2.86402
0.83	2.89034
0.84	2.88475
0.85	2.91633
0.86	2.89527
0.87	2.91633
0.88	2.90416
0.89	2.89198
0.9	2.89659
0.91	2.89363
0.92	2.8683
0.93	2.88804
0.94	2.89198
0.95	2.87323
0.96	2.87159
0.97	2.86797
0.98	2.87027
0.99	2.88343
1	2.89297
1.01	2.8729
1.02	2.8729
1.03	2.89133
1.04	2.89889
1.05	2.91435
1.06	2.89429
1.07	2.85777
1.08	2.90152
1.09	2.88212
1.1	2.8706
1.11	2.8785
1.12	2.88409
1.13	2.89067
1.14	2.82652
1.15	2.83869
1.16	2.8581
1.17	2.86633
1.18	2.87225
1.19	2.91008
1.2	2.88804
1.21	2.86205
1.22	2.89494
1.23	2.8854
1.24	2.86073
1.25	2.89527
1.26	2.89856
1.27	2.92027
1.28	2.90646
1.29	2.891
1.3	2.91797
1.31	2.89955
1.32	2.88047
1.33	2.86501
1.34	2.87685
1.35	2.88244
1.36	2.87258
1.37	2.89988
1.38	2.9035
1.39	2.90613
1.4	2.88277
1.41	2.87784
1.42	2.87159
1.43	2.8785
1.44	2.87356
1.45	2.88705
1.46	2.89166
1.47	2.8808
1.48	2.88179
1.49	2.891
1.5	2.88113
1.51	2.87389
1.52	2.88442
1.53	2.89527
1.54	2.86369
1.55	2.83639
1.56	2.86863
1.57	2.90317
1.58	2.89067
1.59	2.84363
1.6	2.87027
1.61	2.86271
1.62	2.88047
1.63	2.86961
1.64	2.85777
1.65	2.84988
1.66	2.8535
1.67	2.86271
1.68	2.87883
1.69	2.90317
1.7	2.89198
1.71	2.87389
1.72	2.88146
1.73	2.87225
1.74	2.87093
1.75	2.87027
1.76	2.88606
1.77	2.88639
1.78	2.89659
1.79	2.89363
1.8	2.89297
1.81	2.86501
1.82	2.88244
1.83	2.84626
1.84	2.88014
1.85	2.86501
1.86	2.88705
1.87	2.87784
1.88	2.8729
1.89	2.86501
1.9	2.84692
1.91	2.83178
1.92	2.86863
1.93	2.8808
1.94	2.86073
1.95	2.86665
1.96	2.88804
1.97	2.88935
1.98	2.8854
1.99	2.87685
2	2.89198
2.01	2.88508
2.02	2.89955
2.03	2.87883
2.04	2.87948
2.05	2.86896
2.06	2.87554
2.07	2.86567
2.08	2.87883
2.09	2.86698
2.1	2.85086
2.11	2.85514
2.12	2.83672
2.13	2.86435
2.14	2.87488
2.15	2.88902
2.16	2.85415
2.17	2.86633
2.18	2.88047
2.19	2.8535
2.2	2.86238
2.21	2.86764
2.22	2.8683
2.23	2.87126
2.24	2.86929
2.25	2.88705
2.26	2.87619
2.27	2.87159
2.28	2.8706
2.29	2.8729
2.3	2.86731
2.31	2.88277
2.32	2.84626
2.33	2.87126
2.34	2.8854
2.35	2.86698
2.36	2.89396
2.37	2.891
2.38	2.88146
2.39	2.89527
2.4	2.90547
2.41	2.86468
2.42	2.89034
2.43	2.90185
2.44	2.88738
2.45	2.88442
2.46	2.87784
2.47	2.86764
2.48	2.86731
2.49	2.86271
2.5	2.86402
2.51	2.8581
2.52	2.85218
2.53	2.85448
2.54	2.87784
2.55	2.86205
2.56	2.87192
2.57	2.86238
2.58	2.86567
2.59	2.87323
2.6	2.82257
2.61	2.8433
2.62	2.84429
2.63	2.85744
2.64	2.88935
2.65	2.88409
2.66	2.83475
2.67	2.87554
2.68	2.8854
2.69	2.85909
2.7	2.86633
2.71	2.81994
2.72	2.82093
2.73	2.84659
2.74	2.84922
2.75	2.85086
2.76	2.85876
2.77	2.84659
2.78	2.87718
2.79	2.83507
2.8	2.86304
2.81	2.866
2.82	2.85942
2.83	2.8433
2.84	2.85054
2.85	2.88146
2.86	2.85547
2.87	2.85415
2.88	2.85251
2.89	2.89001
2.9	2.8331
2.91	2.85876
2.92	2.87093
2.93	2.85744
2.94	2.84757
2.95	2.84659
2.96	2.87192
2.97	2.87258
2.98	2.89955
2.99	2.86929
3	2.85448
3.01	2.86435
3.02	2.82323
3.03	2.86073
3.04	2.88376
3.05	2.86238
3.06	2.89396
3.07	2.86106
3.08	2.8354
3.09	2.8479
3.1	2.86008
3.11	2.85613
3.12	2.84659
3.13	2.84955
3.14	2.89429
3.15	2.84757
3.16	2.82323
3.17	2.8706
3.18	2.89889
3.19	2.87554
3.2	2.85251
3.21	2.87455
3.22	2.85613
3.23	2.86896
3.24	2.84988
3.25	2.86896
3.26	2.88343
3.27	2.85876
3.28	2.87093
3.29	2.87488
3.3	2.84856
3.31	2.83277
3.32	2.83343
3.33	2.88902
3.34	2.86238
3.35	2.866
3.36	2.85284
3.37	2.84955
3.38	2.87225
3.39	2.86764
3.4	2.88343
3.41	2.88968
3.42	2.89758
3.43	2.87521
3.44	2.88343
3.45	2.85086
3.46	2.85843
3.47	2.84231
3.48	2.87093
3.49	2.85481
3.5	2.87685
3.51	2.86238
3.52	2.86896
3.53	2.84593
3.54	2.8581
3.55	2.86764
3.56	2.8558
3.57	2.8183
3.58	2.87751
3.59	2.84527
3.6	2.85843
3.61	2.87192
3.62	2.85909
3.63	2.88837
3.64	2.86929
3.65	2.88277
3.66	2.90481
3.67	2.8933
3.68	2.86304
3.69	2.85284
3.7	2.86929
3.71	2.9137
3.72	2.88968
3.73	2.89922
3.74	2.8456
3.75	2.84692
3.76	2.82159
3.77	2.82553
3.78	2.87521
3.79	2.84461
3.8	2.89396
3.81	2.85876
3.82	2.83178
3.83	2.8479
3.84	2.82521
3.85	2.84396
3.86	2.88014
3.87	2.85382
3.88	2.83442
3.89	2.83902
3.9	2.80284
3.91	2.8331
3.92	2.84955
3.93	2.86863
3.94	2.82751
3.95	2.8183
3.96	2.8206
3.97	2.8479
3.98	2.86336
3.99	2.85415
4	2.87718
4.01	2.84067
4.02	2.8308
4.03	2.84527
4.04	2.83803
4.05	2.8581
4.06	2.83244
4.07	2.85744
4.08	2.84922
4.09	2.81534
4.1	2.82718
4.11	2.86172
4.12	2.81336
4.13	2.84231
4.14	2.83902
4.15	2.86665
4.16	2.85744
4.17	2.84988
4.18	2.83771
4.19	2.84955
4.2	2.84034
4.21	2.84034
4.22	2.86271
4.23	2.82817
4.24	2.84396
4.25	2.83475
4.26	2.84132
4.27	2.89396
4.28	2.82784
4.29	2.81205
4.3	2.85777
4.31	2.83738
4.32	2.85185
4.33	2.81271
4.34	2.84527
4.35	2.85876
4.36	2.88837
4.37	2.87126
4.38	2.87554
4.39	2.8331
4.4	2.85218
4.41	2.86863
4.42	2.85777
4.43	2.82126
4.44	2.83211
4.45	2.8456
4.46	2.82455
4.47	2.85876
4.48	2.86896
4.49	2.84067
4.5	2.82882
4.51	2.86205
4.52	2.8535
4.53	2.841
4.54	2.83178
4.55	2.87948
4.56	2.90054
4.57	2.84494
4.58	2.84231
4.59	2.85317
4.6	2.81731
4.61	2.84429
4.62	2.84396
4.63	2.84988
4.64	2.86633
4.65	2.82455
4.66	2.81567
4.67	2.83968
4.68	2.84461
4.69	2.8479
4.7	2.85284
4.71	2.85679
4.72	2.86764
4.73	2.85909
4.74	2.84692
4.75	2.81501
4.76	2.81336
4.77	2.86567
4.78	2.84429
4.79	2.85251
4.8	2.83507
4.81	2.82159
4.82	2.82422
4.83	2.81369
4.84	2.82981
4.85	2.82356
4.86	2.84659
4.87	2.82652
4.88	2.8308
4.89	2.84132
4.9	2.8604
4.91	2.83047
4.92	2.83935
4.93	2.84494
4.94	2.80251
4.95	2.8285
4.96	2.87817
4.97	2.87455
4.98	2.8433
4.99	2.80711
5	2.83244
5.01	2.83277
5.02	2.82224
5.03	2.81106
5.04	2.84264
5.05	2.83639
5.06	2.80711
5.07	2.8206
5.08	2.83507
5.09	2.84757
5.1	2.85646
5.11	2.88606
5.12	2.84757
5.13	2.81435
5.14	2.83705
5.15	2.85086
5.16	2.85876
5.17	2.87258
5.18	2.82817
5.19	2.81665
5.2	2.86238
5.21	2.84264
5.22	2.88146
5.23	2.84494
5.24	2.80086
5.25	2.80942
5.26	2.79692
5.27	2.81764
5.28	2.85711
5.29	2.81336
5.3	2.83935
5.31	2.83376
5.32	2.83507
5.33	2.82323
5.34	2.81435
5.35	2.86238
5.36	2.85415
5.37	2.8002
5.38	2.79132
5.39	2.81928
5.4	2.8206
5.41	2.85909
5.42	2.83935
5.43	2.81632
5.44	2.78672
5.45	2.82192
5.46	2.82126
5.47	2.85152
5.48	2.87554
5.49	2.88672
5.5	2.84527
5.51	2.85152
5.52	2.82718
5.53	2.8104
5.54	2.81896
5.55	2.81172
5.56	2.81534
5.57	2.8331
5.58	2.81271
5.59	2.81797
5.6	2.83014
5.61	2.82652
5.62	2.83178
5.63	2.82323
5.64	2.8308
5.65	2.82422
5.66	2.82356
5.67	2.80909
5.68	2.8229
5.69	2.81172
5.7	2.79823
5.71	2.82323
5.72	2.83376
5.73	2.82192
5.74	2.80053
5.75	2.81534
5.76	2.83343
5.77	2.82784
5.78	2.83639
5.79	2.84363
5.8	2.87488
5.81	2.84494
5.82	2.81731
5.83	2.83672
5.84	2.82093
5.85	2.84034
5.86	2.83738
5.87	2.82093
5.88	2.81567
5.89	2.81928
5.9	2.81928
5.91	2.82323
5.92	2.82224
5.93	2.81336
5.94	2.82257
5.95	2.83277
5.96	2.841
5.97	2.84067
5.98	2.82488
5.99	2.81501
6	2.80678
6.01	2.80514
6.02	2.84067
6.03	2.80645
6.04	2.81501
6.05	2.80349
6.06	2.82455
6.07	2.81369
6.08	2.79198
6.09	2.83113
6.1	2.82784
6.11	2.79001
6.12	2.8308
6.13	2.83869
6.14	2.83146
6.15	2.84231
6.16	2.81106
6.17	2.82224
6.18	2.81106
6.19	2.8331
6.2	2.8581
6.21	2.84396
6.22	2.84297
6.23	2.81271
6.24	2.79856
6.25	2.8206
6.26	2.84067
6.27	2.80448
6.28	2.75744
6.29	2.80547
6.3	2.84396
6.31	2.81698
6.32	2.80645
6.33	2.84165
6.34	2.81599
6.35	2.80843
6.36	2.83409
6.37	2.81303
6.38	2.81073
6.39	2.82553
6.4	2.81764
6.41	2.81599
6.42	2.80942
6.43	2.80909
6.44	2.82027
6.45	2.81303
6.46	2.82356
6.47	2.81238
6.48	2.81468
6.49	2.82553
6.5	2.81468
6.51	2.80185
6.52	2.81172
6.53	2.83836
6.54	2.83014
6.55	2.83738
6.56	2.80086
6.57	2.83244
6.58	2.8229
6.59	2.81435
6.6	2.85284
6.61	2.80152
6.62	2.80909
6.63	2.82751
6.64	2.82751
6.65	2.81928
6.66	2.81007
6.67	2.83343
6.68	2.83902
6.69	2.83409
6.7	2.8535
6.71	2.83968
6.72	2.80185
6.73	2.8229
6.74	2.79889
6.75	2.81172
6.76	2.81468
6.77	2.81435
6.78	2.84429
6.79	2.81961
6.8	2.81007
6.81	2.8285
6.82	2.79428
6.83	2.77816
6.84	2.80678
6.85	2.80119
6.86	2.80711
6.87	2.8285
6.88	2.8285
6.89	2.81501
6.9	2.81665
6.91	2.82784
6.92	2.80152
6.93	2.80284
6.94	2.80284
6.95	2.82027
6.96	2.84297
6.97	2.79461
6.98	2.78474
6.99	2.8058
7	2.79856
7.01	2.78935
7.02	2.75678
7.03	2.80843
7.04	2.80119
7.05	2.77586
7.06	2.78738
7.07	2.82718
7.08	2.80974
7.09	2.80317
7.1	2.80152
7.11	2.8002
7.12	2.83211
7.13	2.77784
7.14	2.77981
7.15	2.7808
7.16	2.77356
7.17	2.79494
7.18	2.81007
7.19	2.79461
7.2	2.79494
7.21	2.81534
7.22	2.78573
7.23	2.78606
7.24	2.7877
7.25	2.82586
7.26	2.82784
7.27	2.80645
7.28	2.79955
7.29	2.80284
7.3	2.81336
7.31	2.83705
7.32	2.82455
7.33	2.81172
7.34	2.84297
7.35	2.82422
7.36	2.79034
7.37	2.77718
7.38	2.76336
7.39	2.80876
7.4	2.83343
7.41	2.7979
7.42	2.80382
7.43	2.78145
7.44	2.78211
7.45	2.81928
7.46	2.76106
7.47	2.79692
7.48	2.84264
7.49	2.81336
7.5	2.80317
7.51	2.80251
7.52	2.81007
7.53	2.81073
7.54	2.77389
7.55	2.7831
7.56	2.80514
7.57	2.79264
7.58	2.79724
7.59	2.82422
7.6	2.79757
7.61	2.79034
7.62	2.7956
7.63	2.81238
7.64	2.81106
7.65	2.79363
7.66	2.76402
7.67	2.78409
7.68	2.81303
7.69	2.80547
7.7	2.7706
7.71	2.80974
7.72	2.81632
7.73	2.79198
7.74	2.81303
7.75	2.77159
7.76	2.76566
7.77	2.79461
7.78	2.77915
7.79	2.80547
7.8	2.84132
7.81	2.80382
7.82	2.78409
7.83	2.84231
7.84	2.79856
7.85	2.8354
7.86	2.83376
7.87	2.79692
7.88	2.79856
7.89	2.78047
7.9	2.81468
7.91	2.79757
7.92	2.80053
7.93	2.81797
7.94	2.82718
7.95	2.80645
7.96	2.80547
7.97	2.80876
7.98	2.80909
7.99	2.77751
8	2.79988
8.01	2.79757
8.02	2.80317
8.03	2.77981
8.04	2.78803
8.05	2.79823
8.06	2.80119
8.07	2.78507
8.08	2.79132
8.09	2.80547
8.1	2.78178
8.11	2.79856
8.12	2.82093
8.13	2.75974
8.14	2.78244
8.15	2.80053
8.16	2.83902
8.17	2.81863
8.18	2.80909
8.19	2.79034
8.2	2.78803
8.21	2.78803
8.22	2.81271
8.23	2.80415
8.24	2.79099
8.25	2.81698
8.26	2.81994
8.27	2.81567
8.28	2.83639
8.29	2.81468
8.3	2.82488
8.31	2.79034
8.32	2.79264
8.33	2.79856
8.34	2.79494
8.35	2.80152
8.36	2.78409
8.37	2.74329
8.38	2.76402
8.39	2.7729
8.4	2.77816
8.41	2.78507
8.42	2.80711
8.43	2.75645
8.44	2.77191
8.45	2.8206
8.46	2.78968
8.47	2.80645
8.48	2.77586
8.49	2.7683
8.5	2.77784
8.51	2.78343
8.52	2.7933
8.53	2.79264
8.54	2.77224
8.55	2.75711
8.56	2.79461
8.57	2.81106
8.58	2.79922
8.59	2.80448
8.6	2.77849
8.61	2.76632
8.62	2.78047
8.63	2.77751
8.64	2.80119
8.65	2.78277
8.66	2.77849
8.67	2.78474
8.68	2.78376
8.69	2.76237
8.7	2.76303
8.71	2.80284
8.72	2.79461
8.73	2.7808
8.74	2.75283
8.75	2.7706
8.76	2.74987
8.77	2.7729
8.78	2.79231
8.79	2.75744
8.8	2.79264
8.81	2.77915
8.82	2.79659
8.83	2.79889
8.84	2.77652
8.85	2.79988
8.86	2.77718
8.87	2.8081
8.88	2.75843
8.89	2.77323
8.9	2.77586
8.91	2.76928
8.92	2.80613
8.93	2.78343
8.94	2.78803
8.95	2.81534
8.96	2.8002
8.97	2.7979
8.98	2.78968
8.99	2.78409
9	2.80514
9.01	2.78277
9.02	2.7581
9.03	2.78178
9.04	2.76665
9.05	2.79988
9.06	2.80053
9.07	2.78935
9.08	2.77685
9.09	2.80152
9.1	2.78738
9.11	2.80876
9.12	2.81468
9.13	2.81961
9.14	2.78145
9.15	2.7831
9.16	2.7683
9.17	2.77455
9.18	2.79034
9.19	2.80119
9.2	2.76534
9.21	2.77751
9.22	2.81567
9.23	2.78573
9.24	2.79856
9.25	2.77619
9.26	2.76369
9.27	2.74329
9.28	2.76106
9.29	2.77882
9.3	2.78178
9.31	2.78869
9.32	2.7808
9.33	2.77455
9.34	2.76632
9.35	2.78639
9.36	2.78672
9.37	2.79626
9.38	2.79363
9.39	2.79198
9.4	2.81797
9.41	2.74823
9.42	2.76566
9.43	2.77224
9.44	2.78409
9.45	2.78376
9.46	2.76731
9.47	2.7752
9.48	2.77356
9.49	2.7752
9.5	2.75053
9.51	2.78211
9.52	2.80317
9.53	2.80514
9.54	2.77981
9.55	2.80317
9.56	2.79659
9.57	2.77816
9.58	2.78113
9.59	2.79626
9.6	2.79527
9.61	2.79428
9.62	2.77487
9.63	2.76599
9.64	2.78113
9.65	2.75119
9.66	2.76468
9.67	2.80119
9.68	2.75547
9.69	2.76994
9.7	2.76797
9.71	2.76632
9.72	2.78639
9.73	2.80909
9.74	2.80547
9.75	2.78047
9.76	2.7479
9.77	2.81205
9.78	2.79922
9.79	2.77422
9.8	2.77553
9.81	2.74626
9.82	2.77356
9.83	2.78507
9.84	2.75283
9.85	2.77159
9.86	2.79132
9.87	2.76007
9.88	2.74001
9.89	2.82323
9.9	2.77718
9.91	2.74033
9.92	2.76698
9.93	2.7854
9.94	2.78836
9.95	2.76665
9.96	2.76862
9.97	2.80974
9.98	2.76895
9.99	2.75678
10	2.7683
10.01	2.77882
10.02	2.77685
10.03	2.7808
10.04	2.76073
10.05	2.79692
10.06	2.78211
10.07	2.76632
10.08	2.76599
10.09	2.78935
10.1	2.78441
10.11	2.75678
10.12	2.77718
10.13	2.7808
10.14	2.77652
10.15	2.77784
10.16	2.77849
10.17	2.78441
10.18	2.7604
10.19	2.79494
10.2	2.77685
10.21	2.76961
10.22	2.76895
10.23	2.74395
10.24	2.76731
10.25	2.80448
10.26	2.77816
10.27	2.79001
10.28	2.76665
10.29	2.76073
10.3	2.79659
10.31	2.73244
10.32	2.76632
10.33	2.76534
10.34	2.7683
10.35	2.75086
10.36	2.76895
10.37	2.77652
10.38	2.81369
10.39	2.77849
10.4	2.75251
10.41	2.76073
10.42	2.78047
10.43	2.77126
10.44	2.77849
10.45	2.77784
10.46	2.74329
10.47	2.77981
10.48	2.78014
10.49	2.77389
10.5	2.78277
10.51	2.80448
10.52	2.76501
10.53	2.75251
10.54	2.75547
10.55	2.7706
10.56	2.78902
10.57	2.78474
10.58	2.73277
10.59	2.73672
10.6	2.76862
10.61	2.79034
10.62	2.77093
10.63	2.7502
10.64	2.77784
10.65	2.76994
10.66	2.79099
10.67	2.76665
10.68	2.75678
10.69	2.76599
10.7	2.77619
10.71	2.76961
10.72	2.7627
10.73	2.75711
10.74	2.75415
10.75	2.80415
10.76	2.78803
10.77	2.77849
10.78	2.77948
10.79	2.7831
10.8	2.78803
10.81	2.78672
10.82	2.77685
10.83	2.78803
10.84	2.76764
10.85	2.73573
10.86	2.78606
10.87	2.79363
10.88	2.74033
10.89	2.77718
10.9	2.78803
10.91	2.77652
10.92	2.77159
10.93	2.76599
10.94	2.75251
10.95	2.79889
10.96	2.79428
10.97	2.77685
10.98	2.75645
10.99	2.74724
11	2.79099
11.01	2.77882
11.02	2.75251
11.03	2.76566
11.04	2.78178
11.05	2.7706
11.06	2.74297
11.07	2.76106
11.08	2.79494
11.09	2.75678
11.1	2.79231
11.11	2.77849
11.12	2.77191
11.13	2.77619
11.14	2.76073
11.15	2.72915
11.16	2.7354
11.17	2.75086
11.18	2.73507
11.19	2.78507
11.2	2.75053
11.21	2.7206
11.22	2.73902
11.23	2.74132
11.24	2.76468
11.25	2.7558
11.26	2.7808
11.27	2.76961
11.28	2.77389
11.29	2.79363
11.3	2.77126
11.31	2.78343
11.32	2.75876
11.33	2.76632
11.34	2.77257
11.35	2.75119
11.36	2.75777
11.37	2.77882
11.38	2.79297
11.39	2.79132
11.4	2.75349
11.41	2.75481
11.42	2.74823
11.43	2.76303
11.44	2.74165
11.45	2.74757
11.46	2.76797
11.47	2.77948
11.48	2.7752
11.49	2.75777
11.5	2.74461
11.51	2.77487
11.52	2.78244
11.53	2.79034
11.54	2.77784
11.55	2.79001
11.56	2.79165
11.57	2.78376
11.58	2.73474
11.59	2.75876
11.6	2.77159
11.61	2.80119
11.62	2.78935
11.63	2.75941
11.64	2.7706
11.65	2.76764
11.66	2.77981
11.67	2.80843
11.68	2.78047
11.69	2.7854
11.7	2.76862
11.71	2.75448
11.72	2.7502
11.73	2.7706
11.74	2.7877
11.75	2.79461
11.76	2.76106
11.77	2.77126
11.78	2.77751
11.79	2.75283
11.8	2.78573
11.81	2.8002
11.82	2.75152
11.83	2.74033
11.84	2.75349
11.85	2.74626
11.86	2.7581
11.87	2.76665
11.88	2.73639
11.89	2.73935
11.9	2.76435
11.91	2.75514
11.92	2.74461
11.93	2.76632
11.94	2.74955
11.95	2.76599
11.96	2.73902
11.97	2.74066
11.98	2.75777
11.99	2.75514
12	2.76731
12.01	2.74099
12.02	2.75086
12.03	2.77323
12.04	2.78014
12.05	2.76073
12.06	2.73902
12.07	2.70283
12.08	2.73408
12.09	2.76139
12.1	2.77718
12.11	2.75843
12.12	2.77586
12.13	2.76139
12.14	2.74428
12.15	2.75481
12.16	2.72915
12.17	2.7581
12.18	2.77323
12.19	2.75843
12.2	2.77224
12.21	2.76336
12.22	2.72125
12.23	2.70678
12.24	2.71895
12.25	2.77882
12.26	2.74889
12.27	2.75843
12.28	2.76534
12.29	2.74297
12.3	2.73145
12.31	2.74001
12.32	2.74987
12.33	2.74264
12.34	2.76468
12.35	2.76007
12.36	2.78244
12.37	2.78902
12.38	2.76501
12.39	2.76073
12.4	2.75547
12.41	2.77751
12.42	2.7354
12.43	2.76139
12.44	2.74626
12.45	2.75514
12.46	2.7752
12.47	2.75645
12.48	2.73573
12.49	2.72816
12.5	2.75349
12.51	2.77356
12.52	2.75777
12.53	2.75053
12.54	2.76402
12.55	2.77422
12.56	2.76205
12.57	2.74987
12.58	2.73704
12.59	2.79988
12.6	2.77784
12.61	2.78738
12.62	2.74889
12.63	2.73343
12.64	2.75119
12.65	2.79099
12.66	2.77389
12.67	2.72586
12.68	2.71797
12.69	2.73902
12.7	2.75481
12.71	2.74955
12.72	2.7558
12.73	2.7581
12.74	2.76665
12.75	2.77126
12.76	2.77553
12.77	2.74889
12.78	2.77915
12.79	2.76994
12.8	2.75645
12.81	2.77455
12.82	2.74724
12.83	2.73836
12.84	2.74297
12.85	2.73704
12.86	2.76764
12.87	2.74099
12.88	2.73672
12.89	2.7479
12.9	2.77849
12.91	2.75777
12.92	2.75645
12.93	2.76862
12.94	2.73902
12.95	2.75382
12.96	2.74922
12.97	2.7683
12.98	2.77126
12.99	2.75645
13	2.75152
13.01	2.75415
13.02	2.76731
13.03	2.75283
13.04	2.74757
13.05	2.73672
13.06	2.76402
13.07	2.77257
13.08	2.77422
13.09	2.73474
13.1	2.76106
13.11	2.78113
13.12	2.77159
13.13	2.76369
13.14	2.75086
13.15	2.76237
13.16	2.76468
13.17	2.72257
13.18	2.74626
13.19	2.72915
13.2	2.77093
13.21	2.7581
13.22	2.7752
13.23	2.74658
13.24	2.73376
13.25	2.7683
13.26	2.74658
13.27	2.74691
13.28	2.75876
13.29	2.7877
13.3	2.75876
13.31	2.7456
13.32	2.72685
13.33	2.77356
13.34	2.75547
13.35	2.73244
13.36	2.72652
13.37	2.74724
13.38	2.77027
13.39	2.75152
13.4	2.78606
13.41	2.74593
13.42	2.74626
13.43	2.74922
13.44	2.72981
13.45	2.73968
13.46	2.74395
13.47	2.76501
13.48	2.76534
13.49	2.74658
13.5	2.77981
13.51	2.76928
13.52	2.73639
13.53	2.74033
13.54	2.75711
13.55	2.7354
13.56	2.74264
13.57	2.75974
13.58	2.74362
13.59	2.76139
13.6	2.77553
13.61	2.76106
13.62	2.74626
13.63	2.75382
13.64	2.76172
13.65	2.76435
13.66	2.79264
13.67	2.76139
13.68	2.74099
13.69	2.77257
13.7	2.76566
13.71	2.7627
13.72	2.7502
13.73	2.74724
13.74	2.74494
13.75	2.76106
13.76	2.75481
13.77	2.74889
13.78	2.76073
13.79	2.75612
13.8	2.73474
13.81	2.7456
13.82	2.75218
13.83	2.76106
13.84	2.75843
13.85	2.76895
13.86	2.7354
13.87	2.74099
13.88	2.75547
13.89	2.73178
13.9	2.74955
13.91	2.75941
13.92	2.75448
13.93	2.76007
13.94	2.77356
13.95	2.7558
13.96	2.74066
13.97	2.72948
13.98	2.75645
13.99	2.74494
14	2.74987
14.01	2.75876
14.02	2.74691
14.03	2.76665
14.04	2.74889
14.05	2.76303
14.06	2.76369
14.07	2.76599
14.08	2.76172
14.09	2.77981
14.1	2.75678
14.11	2.72652
14.12	2.72389
14.13	2.75843
14.14	2.72454
14.15	2.73672
14.16	2.73376
14.17	2.74362
14.18	2.75941
14.19	2.75612
14.2	2.74461
14.21	2.76665
14.22	2.77422
14.23	2.74066
14.24	2.76731
14.25	2.77356
14.26	2.74527
14.27	2.77784
14.28	2.77849
14.29	2.74428
14.3	2.76665
14.31	2.74461
14.32	2.73376
14.33	2.74955
14.34	2.78277
14.35	2.77981
14.36	2.7604
14.37	2.76534
14.38	2.76764
14.39	2.77882
14.4	2.76205
14.41	2.76106
14.42	2.73474
14.43	2.73672
14.44	2.73474
14.45	2.71764
14.46	2.74329
14.47	2.77027
14.48	2.78014
14.49	2.75086
14.5	2.73244
14.51	2.71402
14.52	2.76566
14.53	2.74099
14.54	2.74198
14.55	2.76435
14.56	2.76862
14.57	2.79066
14.58	2.78573
14.59	2.7729
14.6	2.73408
14.61	2.71402
14.62	2.76139
14.63	2.75415
14.64	2.75086
14.65	2.76534
14.66	2.75481
14.67	2.70711
14.68	2.74658
14.69	2.72125
14.7	2.73902
14.71	2.74165
14.72	2.74395
14.73	2.73343
14.74	2.75974
14.75	2.78738
14.76	2.74264
14.77	2.72586
14.78	2.74231
14.79	2.76139
14.8	2.74691
14.81	2.76106
14.82	2.76336
14.83	2.76468
14.84	2.73606
14.85	2.75185
14.86	2.74626
14.87	2.75843
14.88	2.74724
14.89	2.73211
14.9	2.74066
14.91	2.72619
14.92	2.75744
14.93	2.77619
14.94	2.75218
14.95	2.74724
14.96	2.70744
14.97	2.72027
14.98	2.7229
14.99	2.71895
15	2.79461
15.01	2.76172
15.02	2.79165
15.03	2.76797
15.04	2.78047
15.05	2.76731
15.06	2.73014
15.07	2.76007
15.08	2.74428
15.09	2.74823
15.1	2.73704
15.11	2.72454
15.12	2.76172
15.13	2.73672
15.14	2.73145
15.15	2.72257
15.16	2.71139
15.17	2.76237
15.18	2.75481
15.19	2.78178
15.2	2.75382
15.21	2.73803
15.22	2.74823
15.23	2.7456
15.24	2.74362
15.25	2.76928
15.26	2.80645
15.27	2.77224
15.28	2.76632
15.29	2.76534
15.3	2.78409
15.31	2.72125
15.32	2.75547
15.33	2.7558
15.34	2.74987
15.35	2.76698
15.36	2.76599
15.37	2.73376
15.38	2.7252
15.39	2.73836
15.4	2.7479
15.41	2.75382
15.42	2.73277
15.43	2.72257
15.44	2.71829
15.45	2.73441
15.46	2.74823
15.47	2.74329
15.48	2.74691
15.49	2.74461
15.5	2.7456
15.51	2.74987
15.52	2.76764
15.53	2.73112
15.54	2.71599
15.55	2.75876
15.56	2.76566
15.57	2.73968
15.58	2.73869
15.59	2.72915
15.6	2.73869
15.61	2.72783
15.62	2.74955
15.63	2.7729
15.64	2.7752
15.65	2.7456
15.66	2.77882
15.67	2.74889
15.68	2.72125
15.69	2.76369
15.7	2.74428
15.71	2.72915
15.72	2.76303
15.73	2.74264
15.74	2.7229
15.75	2.75152
15.76	2.75349
15.77	2.75843
15.78	2.75283
15.79	2.7456
15.8	2.75382
15.81	2.7604
15.82	2.74626
15.83	2.77257
15.84	2.7854
15.85	2.7331
15.86	2.73606
15.87	2.74066
15.88	2.76895
15.89	2.75251
15.9	2.70382
15.91	2.73014
15.92	2.75415
15.93	2.75547
15.94	2.74494
15.95	2.73935
15.96	2.75974
15.97	2.74626
15.98	2.76205
15.99	2.75283
16	2.75185
16.01	2.74724
16.02	2.74329
16.03	2.7331
16.04	2.7331
16.05	2.76501
16.06	2.75481
16.07	2.74165
16.08	2.75711
16.09	2.73606
16.1	2.74099
16.11	2.72948
16.12	2.77027
16.13	2.73704
16.14	2.73606
16.15	2.74297
16.16	2.74001
16.17	2.72158
16.18	2.73836
16.19	2.73672
16.2	2.73606
16.21	2.75481
16.22	2.72652
16.23	2.73935
16.24	2.76106
16.25	2.76205
16.26	2.72849
16.27	2.76862
16.28	2.77882
16.29	2.78507
16.3	2.73178
16.31	2.70579
16.32	2.73112
16.33	2.72718
16.34	2.75974
16.35	2.74231
16.36	2.72849
16.37	2.75251
16.38	2.7558
16.39	2.74033
16.4	2.78507
16.41	2.75941
16.42	2.71073
16.43	2.73376
16.44	2.74165
16.45	2.75908
16.46	2.78507
16.47	2.7456
16.48	2.74099
16.49	2.7729
16.5	2.77093
16.51	2.76566
16.52	2.74724
16.53	2.75349
16.54	2.75612
16.55	2.7479
16.56	2.74922
16.57	2.7206
16.58	2.73145
16.59	2.75086
16.6	2.74001
16.61	2.7229
16.62	2.73145
16.63	2.73244
16.64	2.7252
16.65	2.70546
16.66	2.72487
16.67	2.74691
16.68	2.73244
16.69	2.7206
16.7	2.71797
16.71	2.72553
16.72	2.74428
16.73	2.78211
16.74	2.7581
16.75	2.73902
16.76	2.76007
16.77	2.77784
16.78	2.78047
16.79	2.75612
16.8	2.72718
16.81	2.73639
16.82	2.73737
16.83	2.72093
16.84	2.74856
16.85	2.73343
16.86	2.75053
16.87	2.73277
16.88	2.73211
16.89	2.72158
16.9	2.69
16.91	2.73902
16.92	2.7229
16.93	2.75941
16.94	2.74955
16.95	2.73639
16.96	2.72652
16.97	2.75711
16.98	2.75448
16.99	2.75086
17	2.78474
17.01	2.78343
17.02	2.75415
17.03	2.75843
17.04	2.74691
17.05	2.73376
17.06	2.76797
17.07	2.74724
17.08	2.75547
17.09	2.75711
17.1	2.75744
17.11	2.71862
17.12	2.74099
17.13	2.7729
17.14	2.73704
17.15	2.73836
17.16	2.7706
17.17	2.74494
17.18	2.72816
17.19	2.7275
17.2	2.71566
17.21	2.73441
17.22	2.7854
17.23	2.74461
17.24	2.72915
17.25	2.70875
17.26	2.71829
17.27	2.75119
17.28	2.76632
17.29	2.7706
17.3	2.7252
17.31	2.74165
17.32	2.71928
17.33	2.74823
17.34	2.76007
17.35	2.75744
17.36	2.72718
17.37	2.69231
17.38	2.71829
17.39	2.70974
17.4	2.75711
17.41	2.75185
17.42	2.73014
17.43	2.72356
17.44	2.7377
17.45	2.76237
17.46	2.73244
17.47	2.75119
17.48	2.75415
17.49	2.7331
17.5	2.73606
17.51	2.75481
17.52	2.7104
17.53	2.73343
17.54	2.71862
17.55	2.72685
17.56	2.72125
17.57	2.70843
17.58	2.75316
17.59	2.72981
17.6	2.74231
17.61	2.76435
17.62	2.73737
17.63	2.73507
17.64	2.74198
17.65	2.73507
17.66	2.72849
17.67	2.72389
17.68	2.73112
17.69	2.72454
17.7	2.71797
17.71	2.73408
17.72	2.75547
17.73	2.75283
17.74	2.74494
17.75	2.7627
17.76	2.75119
17.77	2.74001
17.78	2.74856
17.79	2.73639
17.8	2.76402
17.81	2.72093
17.82	2.73639
17.83	2.76961
17.84	2.74132
17.85	2.72783
17.86	2.76534
17.87	2.74297
17.88	2.75612
17.89	2.71402
17.9	2.72389
17.91	2.76928
17.92	2.75415
17.93	2.69757
17.94	2.71764
17.95	2.72915
17.96	2.74626
17.97	2.74395
17.98	2.76435
17.99	2.74955
18	2.73573
18.01	2.74757
18.02	2.7456
18.03	2.73935
18.04	2.73014
18.05	2.75185
18.06	2.75251
18.07	2.74757
18.08	2.74033
18.09	2.73277
18.1	2.75152
18.11	2.7479
18.12	2.75612
18.13	2.75382
18.14	2.74626
18.15	2.7627
18.16	2.7275
18.17	2.7479
18.18	2.77027
18.19	2.7206
18.2	2.72948
18.21	2.7331
18.22	2.71665
18.23	2.73639
18.24	2.72685
18.25	2.74264
18.26	2.73573
18.27	2.72257
18.28	2.71994
18.29	2.75678
18.3	2.7831
18.31	2.76961
18.32	2.76435
18.33	2.75678
18.34	2.74001
18.35	2.73737
18.36	2.75316
18.37	2.76468
18.38	2.75612
18.39	2.70843
18.4	2.74461
18.41	2.73441
18.42	2.73606
18.43	2.72685
18.44	2.71566
18.45	2.75711
18.46	2.75645
18.47	2.73803
18.48	2.72981
18.49	2.73408
18.5	2.74461
18.51	2.75283
18.52	2.7604
18.53	2.75777
18.54	2.72323
18.55	2.74922
18.56	2.74823
18.57	2.71731
18.58	2.7729
18.59	2.7354
18.6	2.72882
18.61	2.76172
18.62	2.71994
18.63	2.74856
18.64	2.73968
18.65	2.75053
18.66	2.74297
18.67	2.73376
18.68	2.73606
18.69	2.73244
18.7	2.75053
18.71	2.74428
18.72	2.74362
18.73	2.72652
18.74	2.75678
18.75	2.7377
18.76	2.73968
18.77	2.75678
18.78	2.73244
18.79	2.75218
18.8	2.74001
18.81	2.73079
18.82	2.71171
18.83	2.73376
18.84	2.73507
18.85	2.7206
18.86	2.71731
18.87	2.74001
18.88	2.78672
18.89	2.73803
18.9	2.74428
18.91	2.74198
18.92	2.72158
18.93	2.71928
18.94	2.72586
18.95	2.73145
18.96	2.74757
18.97	2.74329
18.98	2.69921
18.99	2.71237
19	2.73803
19.01	2.77126
19.02	2.7479
19.03	2.75152
19.04	2.75547
19.05	2.74889
19.06	2.74593
19.07	2.74066
19.08	2.77487
19.09	2.76073
19.1	2.74198
19.11	2.74099
19.12	2.74428
19.13	2.75185
19.14	2.7479
19.15	2.7581
19.16	2.76435
19.17	2.75711
19.18	2.76961
19.19	2.77553
19.2	2.76237
19.21	2.73211
19.22	2.78474
19.23	2.75086
19.24	2.73902
19.25	2.73474
19.26	2.72027
19.27	2.74165
19.28	2.74198
19.29	2.72323
19.3	2.74362
19.31	2.75415
19.32	2.75744
19.33	2.75218
19.34	2.74066
19.35	2.76468
19.36	2.74231
19.37	2.77553
19.38	2.74001
19.39	2.73014
19.4	2.71862
19.41	2.73902
19.42	2.75251
19.43	2.74922
19.44	2.76073
19.45	2.73474
19.46	2.72027
19.47	2.74001
19.48	2.73178
19.49	2.74395
19.5	2.72718
19.51	2.76237
19.52	2.7604
19.53	2.75908
19.54	2.73935
19.55	2.72948
19.56	2.73211
19.57	2.72816
19.58	2.71994
19.59	2.75678
19.6	2.75481
19.61	2.73935
19.62	2.74922
19.63	2.74033
19.64	2.71073
19.65	2.75382
19.66	2.73408
19.67	2.74856
19.68	2.76599
19.69	2.73672
19.7	2.74494
19.71	2.7729
19.72	2.77981
19.73	2.74264
19.74	2.75843
19.75	2.74691
19.76	2.73441
19.77	2.73474
19.78	2.76237
19.79	2.74297
19.8	2.75744
19.81	2.73639
19.82	2.72882
19.83	2.75678
19.84	2.75908
19.85	2.74626
19.86	2.74362
19.87	2.7706
19.88	2.75876
19.89	2.75547
19.9	2.77816
19.91	2.75382
19.92	2.74329
19.93	2.74658
19.94	2.74395
19.95	2.74428
19.96	2.74494
19.97	2.75612
19.98	2.74362
19.99	2.7604
20	2.7604
20.01	2.74889
20.02	2.70974
20.03	2.73112
20.04	2.73014
20.05	2.72783
20.06	2.75185
20.07	2.73704
20.08	2.76698
20.09	2.76402
20.1	2.75678
20.11	2.7456
20.12	2.77652
20.13	2.77027
20.14	2.72948
20.15	2.73014
20.16	2.76007
20.17	2.71928
20.18	2.73737
20.19	2.73343
20.2	2.70843
20.21	2.74395
20.22	2.72915
20.23	2.73441
20.24	2.75974
20.25	2.75349
20.26	2.7558
20.27	2.73211
20.28	2.75843
20.29	2.77224
20.3	2.73145
20.31	2.72389
20.32	2.74527
20.33	2.78507
20.34	2.74001
20.35	2.73441
20.36	2.74231
20.37	2.73079
20.38	2.76731
20.39	2.72257
20.4	2.73277
20.41	2.77948
20.42	2.75382
20.43	2.75876
20.44	2.73178
20.45	2.74955
20.46	2.72915
20.47	2.75152
20.48	2.74889
20.49	2.71961
20.5	2.75185
20.51	2.74987
20.52	2.73441
20.53	2.73573
20.54	2.73606
20.55	2.72257
20.56	2.74132
20.57	2.75448
20.58	2.7377
20.59	2.74955
20.6	2.74297
20.61	2.74231
20.62	2.73672
20.63	2.71468
20.64	2.74889
20.65	2.74889
20.66	2.73935
20.67	2.76435
20.68	2.75876
20.69	2.75678
20.7	2.75448
20.71	2.75645
20.72	2.76237
20.73	2.7502
20.74	2.76468
20.75	2.75382
20.76	2.75908
20.77	2.73803
20.78	2.76435
20.79	2.73672
20.8	2.73672
20.81	2.74658
20.82	2.75316
20.83	2.74428
20.84	2.76961
20.85	2.75448
20.86	2.71632
20.87	2.69231
20.88	2.73573
20.89	2.76007
20.9	2.74297
20.91	2.73968
20.92	2.74626
20.93	2.79231
20.94	2.75448
20.95	2.71007
20.96	2.73145
20.97	2.76665
20.98	2.74757
20.99	2.75843
21	2.76303
21.01	2.73573
21.02	2.70185
21.03	2.75908
21.04	2.74757
21.05	2.75547
21.06	2.76237
21.07	2.75316
21.08	2.75974
21.09	2.76205
21.1	2.78573
21.11	2.74593
21.12	2.75876
21.13	2.74362
21.14	2.73639
21.15	2.72125
21.16	2.75119
21.17	2.7706
21.18	2.75218
21.19	2.75678
21.2	2.74132
21.21	2.73474
21.22	2.7331
21.23	2.73014
21.24	2.73737
21.25	2.75448
21.26	2.77553
21.27	2.73112
21.28	2.75547
21.29	2.74955
21.3	2.73376
21.31	2.72389
21.32	2.76237
21.33	2.72454
21.34	2.71665
21.35	2.75908
21.36	2.72323
21.37	2.78968
21.38	2.7627
21.39	2.72191
21.4	2.75843
21.41	2.7377
21.42	2.70612
21.43	2.72389
21.44	2.7456
21.45	2.7502
21.46	2.75481
21.47	2.74099
21.48	2.73935
21.49	2.75612
21.5	2.72882
21.51	2.73408
21.52	2.74132
21.53	2.75645
21.54	2.76336
21.55	2.74033
21.56	2.73869
21.57	2.74987
21.58	2.82126
21.59	2.80119
21.6	2.72224
21.61	2.72454
21.62	2.73704
21.63	2.74691
21.64	2.7502
21.65	2.74231
21.66	2.73112
21.67	2.72816
21.68	2.74658
21.69	2.74428
21.7	2.71731
21.71	2.74001
21.72	2.76731
21.73	2.71435
21.74	2.74922
21.75	2.73869
21.76	2.73869
21.77	2.77126
21.78	2.76106
21.79	2.73112
21.8	2.72257
21.81	2.76797
21.82	2.71698
21.83	2.71994
21.84	2.76237
21.85	2.74362
21.86	2.70415
21.87	2.74329
21.88	2.74658
21.89	2.73803
21.9	2.73441
21.91	2.71961
21.92	2.75645
21.93	2.77718
21.94	2.77257
21.95	2.76566
21.96	2.73474
21.97	2.74527
21.98	2.7479
21.99	2.73704
22	2.75251
22.01	2.76665
22.02	2.74987
22.03	2.74527
22.04	2.74297
22.05	2.72652
22.06	2.73079
22.07	2.73737
22.08	2.74955
22.09	2.75678
22.1	2.72849
22.11	2.74066
22.12	2.73704
22.13	2.72027
22.14	2.72422
22.15	2.73277
22.16	2.73836
22.17	2.76501
22.18	2.75777
22.19	2.72816
22.2	2.74987
22.21	2.74922
22.22	2.7581
22.23	2.73606
22.24	2.74527
22.25	2.72158
22.26	2.74527
22.27	2.72422
22.28	2.75283
22.29	2.74329
22.3	2.75514
22.31	2.72882
22.32	2.77784
22.33	2.76237
22.34	2.7558
22.35	2.75514
22.36	2.78343
22.37	2.74066
22.38	2.75645
22.39	2.7331
22.4	2.73803
22.41	2.74593
22.42	2.75251
22.43	2.72487
22.44	2.74165
22.45	2.75152
22.46	2.77685
22.47	2.76895
22.48	2.71928
22.49	2.74395
22.5	2.73507
22.51	2.7558
22.52	2.74001
22.53	2.72257
22.54	2.74329
22.55	2.72948
22.56	2.73408
22.57	2.73836
22.58	2.75941
22.59	2.70645
22.6	2.77257
22.61	2.77027
22.62	2.7627
22.63	2.72915
22.64	2.75382
22.65	2.76205
22.66	2.75843
22.67	2.76402
22.68	2.76566
22.69	2.7604
22.7	2.72783
22.71	2.75908
22.72	2.76007
22.73	2.76665
22.74	2.76139
22.75	2.76862
22.76	2.72356
22.77	2.71073
22.78	2.75481
22.79	2.73639
22.8	2.75119
22.81	2.74362
22.82	2.74626
22.83	2.75086
22.84	2.74494
22.85	2.73441
22.86	2.77487
22.87	2.77948
22.88	2.77784
22.89	2.75086
22.9	2.72257
22.91	2.71402
22.92	2.7229
22.93	2.73014
22.94	2.67915
22.95	2.72948
22.96	2.71764
22.97	2.73408
22.98	2.75316
22.99	2.75843
23	2.73968
23.01	2.76106
23.02	2.76468
23.03	2.74889
23.04	2.73277
23.05	2.75382
23.06	2.74362
23.07	2.73836
23.08	2.72257
23.09	2.7275
23.1	2.76369
23.11	2.74066
23.12	2.76797
23.13	2.76534
23.14	2.72553
23.15	2.74132
23.16	2.72882
23.17	2.75316
23.18	2.76336
23.19	2.76895
23.2	2.74494
23.21	2.71303
23.22	2.75612
23.23	2.75612
23.24	2.78474
23.25	2.73803
23.26	2.72718
23.27	2.73244
23.28	2.77652
23.29	2.72487
23.3	2.73408
23.31	2.78803
23.32	2.73606
23.33	2.74033
23.34	2.71829
23.35	2.73343
23.36	2.72685
23.37	2.72553
23.38	2.73836
23.39	2.73704
23.4	2.73441
23.41	2.74264
23.42	2.7604
23.43	2.74987
23.44	2.74099
23.45	2.74198
23.46	2.74362
23.47	2.75645
23.48	2.72553
23.49	2.75415
23.5	2.74987
23.51	2.75941
23.52	2.72981
23.53	2.75218
23.54	2.74264
23.55	2.74264
23.56	2.73639
23.57	2.73803
23.58	2.72553
23.59	2.73869
23.6	2.78211
23.61	2.7479
23.62	2.73047
23.63	2.72553
23.64	2.7479
23.65	2.76862
23.66	2.73376
23.67	2.74494
23.68	2.7729
23.69	2.75053
23.7	2.74856
23.71	2.75547
23.72	2.75974
23.73	2.75711
23.74	2.75843
23.75	2.76073
23.76	2.78178
23.77	2.75908
23.78	2.74231
23.79	2.7377
23.8	2.72454
23.81	2.78014
23.82	2.73145
23.83	2.75283
23.84	2.7502
23.85	2.71862
23.86	2.73376
23.87	2.75316
23.88	2.72356
23.89	2.75152
23.9	2.7627
23.91	2.74691
23.92	2.72718
23.93	2.71797
23.94	2.75251
23.95	2.73376
23.96	2.74527
23.97	2.73178
23.98	2.73277
23.99	2.72718
24	2.71829
24.01	2.70514
24.02	2.70481
24.03	2.72257
24.04	2.76205
24.05	2.73737
24.06	2.73112
24.07	2.77027
24.08	2.75053
24.09	2.77323
24.1	2.74691
24.11	2.74691
24.12	2.73507
24.13	2.74593
24.14	2.7229
24.15	2.74724
24.16	2.74066
24.17	2.74724
24.18	2.74757
24.19	2.77224
24.2	2.75678
24.21	2.74099
24.22	2.7456
24.23	2.70908
24.24	2.7206
24.25	2.75185
24.26	2.7627
24.27	2.78507
24.28	2.75382
24.29	2.77323
24.3	2.74362
24.31	2.75514
24.32	2.7456
24.33	2.76205
24.34	2.72224
24.35	2.73639
24.36	2.75908
24.37	2.76797
24.38	2.77619
24.39	2.78014
24.4	2.72224
24.41	2.7456
24.42	2.75744
24.43	2.74198
24.44	2.73672
24.45	2.74494
24.46	2.75876
24.47	2.75514
24.48	2.74297
24.49	2.74362
24.5	2.75218
24.51	2.75251
24.52	2.71599
24.53	2.74461
24.54	2.7558
24.55	2.73803
24.56	2.70678
24.57	2.7127
24.58	2.74757
24.59	2.74428
24.6	2.73672
24.61	2.75185
24.62	2.75481
24.63	2.74001
24.64	2.75843
24.65	2.75908
24.66	2.74329
24.67	2.72553
24.68	2.72389
24.69	2.74889
24.7	2.73869
24.71	2.75119
24.72	2.75415
24.73	2.74856
24.74	2.71533
24.75	2.74362
24.76	2.74724
24.77	2.71599
24.78	2.72915
24.79	2.73869
24.8	2.75382
24.81	2.73737
24.82	2.74165
24.83	2.76895
24.84	2.73343
24.85	2.74297
24.86	2.75941
24.87	2.74593
24.88	2.76172
24.89	2.75876
24.9	2.75514
24.91	2.74428
24.92	2.74823
24.93	2.74461
24.94	2.74395
24.95	2.69954
24.96	2.73343
24.97	2.73244
24.98	2.75908
24.99	2.75316
25	2.69856
25.01	2.72882
25.02	2.7502
25.03	2.77422
25.04	2.72356
25.05	2.72553
25.06	2.75251
25.07	2.78474
25.08	2.75645
25.09	2.7933
25.1	2.74329
25.11	2.73376
25.12	2.74626
25.13	2.74626
25.14	2.75185
25.15	2.76402
25.16	2.73211
25.17	2.76731
25.18	2.73244
25.19	2.73573
25.2	2.76632
25.21	2.74823
25.22	2.74724
25.23	2.73869
25.24	2.75908
25.25	2.7229
25.26	2.72191
25.27	2.75744
25.28	2.71961
25.29	2.74987
25.3	2.72849
25.31	2.75119
25.32	2.75251
25.33	2.75349
25.34	2.77784
25.35	2.74757
25.36	2.74395
25.37	2.70744
25.38	2.74033
25.39	2.73869
25.4	2.75316
25.41	2.74987
25.42	2.73474
25.43	2.72422
25.44	2.73836
25.45	2.73507
25.46	2.73343
25.47	2.72191
25.48	2.77027
25.49	2.75415
25.5	2.76599
25.51	2.75053
25.52	2.70941
25.53	2.75349
25.54	2.77093
25.55	2.74264
25.56	2.70711
25.57	2.73244
25.58	2.76961
25.59	2.72323
25.6	2.72586
25.61	2.74033
25.62	2.74593
25.63	2.7627
25.64	2.76665
25.65	2.75612
25.66	2.7502
25.67	2.72487
25.68	2.7377
25.69	2.77652
25.7	2.74527
25.71	2.74099
25.72	2.74593
25.73	2.74987
25.74	2.77751
25.75	2.76369
25.76	2.74889
25.77	2.75711
25.78	2.75119
25.79	2.71632
25.8	2.74033
25.81	2.76928
25.82	2.7683
25.83	2.75349
25.84	2.75382
25.85	2.76599
25.86	2.75152
25.87	2.75415
25.88	2.72454
25.89	2.78441
25.9	2.7502
25.91	2.75316
25.92	2.74362
25.93	2.73704
25.94	2.77323
25.95	2.75744
25.96	2.76632
25.97	2.76007
25.98	2.74527
25.99	2.74264
26	2.75251
26.01	2.72981
26.02	2.73704
26.03	2.72652
26.04	2.73935
26.05	2.715
26.06	2.70875
26.07	2.73935
26.08	2.75744
26.09	2.75119
26.1	2.73902
26.11	2.75086
26.12	2.74593
26.13	2.75744
26.14	2.74033
26.15	2.7456
26.16	2.72718
26.17	2.73408
26.18	2.74297
26.19	2.73737
26.2	2.74691
26.21	2.73047
26.22	2.74231
26.23	2.77948
26.24	2.74461
26.25	2.72356
26.26	2.7502
26.27	2.74889
26.28	2.76402
26.29	2.75481
26.3	2.72685
26.31	2.73343
26.32	2.76007
26.33	2.71928
26.34	2.71402
26.35	2.7377
26.36	2.72454
26.37	2.75908
26.38	2.76862
26.39	2.74395
26.4	2.6831
26.41	2.76303
26.42	2.74165
26.43	2.73014
26.44	2.73211
26.45	2.73441
26.46	2.73573
26.47	2.74987
26.48	2.73704
26.49	2.75908
26.5	2.77323
26.51	2.76007
26.52	2.7275
26.53	2.75316
26.54	2.73277
26.55	2.7275
26.56	2.72224
26.57	2.73277
26.58	2.7275
26.59	2.72718
26.6	2.72389
26.61	2.76073
26.62	2.75744
26.63	2.73112
26.64	2.72619
26.65	2.72915
26.66	2.70119
26.67	2.71994
26.68	2.73211
26.69	2.73145
26.7	2.71665
26.71	2.72125
26.72	2.74922
26.73	2.72816
26.74	2.71829
26.75	2.72849
26.76	2.71435
26.77	2.74132
26.78	2.72487
26.79	2.73211
26.8	2.73408
26.81	2.72948
26.82	2.71764
26.83	2.70349
26.84	2.73079
26.85	2.74626
26.86	2.75316
26.87	2.75481
26.88	2.72323
26.89	2.72816
26.9	2.74724
26.91	2.75251
26.92	2.74856
26.93	2.72849
26.94	2.72422
26.95	2.77553
26.96	2.74856
26.97	2.74264
26.98	2.72257
26.99	2.75612
27	2.7252
27.01	2.75185
27.02	2.70941
27.03	2.71764
27.04	2.76205
27.05	2.74297
27.06	2.74626
27.07	2.74658
27.08	2.73408
27.09	2.74955
27.1	2.74297
27.11	2.76797
27.12	2.71369
27.13	2.72981
27.14	2.75119
27.15	2.72915
27.16	2.78376
27.17	2.75119
27.18	2.70481
27.19	2.71106
27.2	2.74033
27.21	2.7706
27.22	2.76764
27.23	2.77191
27.24	2.73836
27.25	2.74362
27.26	2.75349
27.27	2.71106
27.28	2.72718
27.29	2.76369
27.3	2.75843
27.31	2.74033
27.32	2.7252
27.33	2.69198
27.34	2.74132
27.35	2.73803
27.36	2.72158
27.37	2.75843
27.38	2.74132
27.39	2.73639
27.4	2.75218
27.41	2.74658
27.42	2.74823
27.43	2.73672
27.44	2.74461
27.45	2.73803
27.46	2.72356
27.47	2.73145
27.48	2.71829
27.49	2.75612
27.5	2.75283
27.51	2.77487
27.52	2.77849
27.53	2.74395
27.54	2.77027
27.55	2.73836
27.56	2.73047
27.57	2.73573
27.58	2.71961
27.59	2.7456
27.6	2.74889
27.61	2.76994
27.62	2.74264
27.63	2.77455
27.64	2.76797
27.65	2.76468
27.66	2.7104
27.67	2.70448
27.68	2.72849
27.69	2.76303
27.7	2.74428
27.71	2.74428
27.72	2.71632
27.73	2.73968
27.74	2.76731
27.75	2.76862
27.76	2.72882
27.77	2.72356
27.78	2.76073
27.79	2.73737
27.8	2.75382
27.81	2.75316
27.82	2.70711
27.83	2.71895
27.84	2.76007
27.85	2.74099
27.86	2.73145
27.87	2.75086
27.88	2.7581
27.89	2.75514
27.9	2.74757
27.91	2.77126
27.92	2.73672
27.93	2.73704
27.94	2.72981
27.95	2.74132
27.96	2.7581
27.97	2.71237
27.98	2.70941
27.99	2.74033
28	2.71303
28.01	2.75283
28.02	2.75843
28.03	2.7229
28.04	2.75086
28.05	2.75185
28.06	2.75876
28.07	2.75316
28.08	2.75645
28.09	2.75185
28.1	2.73408
28.11	2.73376
28.12	2.7354
28.13	2.75053
28.14	2.74593
28.15	2.71895
28.16	2.72882
28.17	2.74428
28.18	2.73573
28.19	2.74165
28.2	2.76895
28.21	2.75316
28.22	2.68474
28.23	2.74297
28.24	2.73079
28.25	2.73014
28.26	2.74033
28.27	2.73606
28.28	2.74955
28.29	2.71829
28.3	2.75415
28.31	2.74987
28.32	2.72718
28.33	2.75349
28.34	2.70908
28.35	2.75251
28.36	2.76172
28.37	2.75251
28.38	2.72224
28.39	2.74362
28.4	2.73836
28.41	2.73869
28.42	2.75152
28.43	2.73474
28.44	2.73573
28.45	2.73606
28.46	2.73935
28.47	2.74066
28.48	2.74658
28.49	2.74165
28.5	2.75283
28.51	2.74001
28.52	2.73014
28.53	2.77915
28.54	2.75349
28.55	2.73178
28.56	2.71895
28.57	2.71895
28.58	2.74461
28.59	2.71928
28.6	2.72816
28.61	2.74001
28.62	2.70678
28.63	2.75086
28.64	2.74001
28.65	2.70744
28.66	2.72257
28.67	2.72224
28.68	2.72487
28.69	2.71665
28.7	2.76073
28.71	2.73704
28.72	2.75908
28.73	2.76139
28.74	2.71073
28.75	2.73376
28.76	2.76468
28.77	2.74757
28.78	2.77356
28.79	2.73178
28.8	2.73968
28.81	2.73014
28.82	2.72224
28.83	2.73079
28.84	2.76468
28.85	2.74297
28.86	2.75974
28.87	2.74033
28.88	2.7502
28.89	2.73014
28.9	2.73704
28.91	2.73507
28.92	2.75415
28.93	2.72915
28.94	2.74099
28.95	2.74461
28.96	2.74099
28.97	2.72718
28.98	2.73573
28.99	2.75415
29	2.74033
29.01	2.73672
29.02	2.73376
29.03	2.73408
29.04	2.73047
29.05	2.75316
29.06	2.71237
29.07	2.7206
29.08	2.74922
29.09	2.73935
29.1	2.73014
29.11	2.75086
29.12	2.72652
29.13	2.74329
29.14	2.7456
29.15	2.74724
29.16	2.72849
29.17	2.74132
29.18	2.75514
29.19	2.75119
29.2	2.74856
29.21	2.76501
29.22	2.76566
29.23	2.73047
29.24	2.73573
29.25	2.7456
29.26	2.73408
29.27	2.73704
29.28	2.73014
29.29	2.71895
29.3	2.71566
29.31	2.70448
29.32	2.73343
29.33	2.73178
29.34	2.73573
29.35	2.7479
29.36	2.76073
29.37	2.74099
29.38	2.74033
29.39	2.72718
29.4	2.74066
29.41	2.71994
29.42	2.71895
29.43	2.73902
29.44	2.72389
29.45	2.75119
29.46	2.74823
29.47	2.7252
29.48	2.71731
29.49	2.70283
29.5	2.74428
29.51	2.74823
29.52	2.7275
29.53	2.7104
29.54	2.71961
29.55	2.73474
29.56	2.73935
29.57	2.73145
29.58	2.72948
29.59	2.7331
29.6	2.72619
29.61	2.73902
29.62	2.72619
29.63	2.71994
29.64	2.74527
29.65	2.71007
29.66	2.73408
29.67	2.75711
29.68	2.7479
29.69	2.75349
29.7	2.75316
29.71	2.70218
29.72	2.72915
29.73	2.76501
29.74	2.73145
29.75	2.74231
29.76	2.71797
29.77	2.74066
29.78	2.74626
29.79	2.71961
29.8	2.73079
29.81	2.71829
29.82	2.73474
29.83	2.75908
29.84	2.76599
29.85	2.74823
29.86	2.75678
29.87	2.74593
29.88	2.72783
29.89	2.73704
29.9	2.71204
29.91	2.73112
29.92	2.76501
29.93	2.76764
29.94	2.76139
29.95	2.75283
29.96	2.73704
29.97	2.75974
29.98	2.71139
29.99	2.69889
30	2.74297
30.01	2.72422
30.02	2.70777
30.03	2.72158
30.04	2.72619
30.05	2.73803
30.06	2.74362
30.07	2.73441
30.08	2.71731
30.09	2.7354
30.1	2.76402
30.11	2.75185
30.12	2.75382
30.13	2.76764
30.14	2.74001
30.15	2.74626
30.16	2.7581
30.17	2.74461
30.18	2.74198
30.19	2.75612
30.2	2.70744
30.21	2.7252
30.22	2.74823
30.23	2.72882
30.24	2.72257
30.25	2.74231
30.26	2.74724
30.27	2.75974
30.28	2.75678
30.29	2.73803
30.3	2.72816
30.31	2.73968
30.32	2.77224
30.33	2.76534
30.34	2.74165
30.35	2.73047
30.36	2.72981
30.37	2.70152
30.38	2.71336
30.39	2.75974
30.4	2.74132
30.41	2.75645
30.42	2.72553
30.43	2.74626
30.44	2.72093
30.45	2.72422
30.46	2.715
30.47	2.71336
30.48	2.77751
30.49	2.7206
30.5	2.72783
30.51	2.72093
30.52	2.74955
30.53	2.69527
30.54	2.70875
30.55	2.71994
30.56	2.74297
30.57	2.7275
30.58	2.73112
30.59	2.73014
30.6	2.72882
30.61	2.75974
30.62	2.74395
30.63	2.76007
30.64	2.72454
30.65	2.72783
30.66	2.71106
30.67	2.72783
30.68	2.70415
30.69	2.71106
30.7	2.74099
30.71	2.71468
30.72	2.69823
30.73	2.72191
30.74	2.70415
30.75	2.71533
30.76	2.74527
30.77	2.74165
30.78	2.75678
30.79	2.74823
30.8	2.7377
30.81	2.72948
30.82	2.71402
30.83	2.72619
30.84	2.71402
30.85	2.73376
30.86	2.7377
30.87	2.72915
30.88	2.76106
30.89	2.73408
30.9	2.73145
30.91	2.71336
30.92	2.7275
30.93	2.72586
30.94	2.71402
30.95	2.75316
30.96	2.71764
30.97	2.73606
30.98	2.74527
30.99	2.76994
31	2.7627
31.01	2.7502
31.02	2.74856
31.03	2.72981
31.04	2.71928
31.05	2.7127
31.06	2.73112
31.07	2.73112
31.08	2.72224
31.09	2.70875
31.1	2.72652
31.11	2.73343
31.12	2.71303
31.13	2.72422
31.14	2.69033
31.15	2.70645
31.16	2.72915
31.17	2.73836
31.18	2.74001
31.19	2.75349
31.2	2.73408
31.21	2.72718
31.22	2.71797
31.23	2.7331
31.24	2.6979
31.25	2.7275
31.26	2.72816
31.27	2.70514
31.28	2.72389
31.29	2.72487
31.3	2.70481
31.31	2.71533
31.32	2.73047
31.33	2.72422
31.34	2.75316
31.35	2.75612
31.36	2.75777
31.37	2.74527
31.38	2.73474
31.39	2.73507
31.4	2.73343
31.41	2.73474
31.42	2.72257
31.43	2.7331
31.44	2.75908
31.45	2.74428
31.46	2.70875
31.47	2.74001
31.48	2.72816
31.49	2.74362
31.5	2.72619
31.51	2.71599
31.52	2.72158
31.53	2.70119
31.54	2.71402
31.55	2.69987
31.56	2.75744
31.57	2.73211
31.58	2.75448
31.59	2.70974
31.6	2.73376
31.61	2.73573
31.62	2.7229
31.63	2.70546
31.64	2.73178
31.65	2.73376
31.66	2.74165
31.67	2.73639
31.68	2.72915
31.69	2.76928
31.7	2.72685
31.71	2.72553
31.72	2.72454
31.73	2.70941
31.74	2.69658
31.75	2.71665
31.76	2.7377
31.77	2.72158
31.78	2.72257
31.79	2.72125
31.8	2.74099
31.81	2.70546
31.82	2.71533
31.83	2.74527
31.84	2.71731
31.85	2.73672
31.86	2.71435
31.87	2.70645
31.88	2.71303
31.89	2.75053
31.9	2.73902
31.91	2.7206
31.92	2.72849
31.93	2.72422
31.94	2.72487
31.95	2.73672
31.96	2.72586
31.97	2.72652
31.98	2.73145
31.99	2.7502
32	2.74955
32.01	2.73343
32.02	2.74033
32.03	2.74198
32.04	2.74626
32.05	2.70514
32.06	2.70579
32.07	2.72816
32.08	2.72586
32.09	2.74691
32.1	2.7354
32.11	2.71303
32.12	2.71237
32.13	2.71961
32.14	2.73836
32.15	2.71862
32.16	2.73211
32.17	2.71862
32.18	2.71435
32.19	2.72685
32.2	2.71303
32.21	2.72158
32.22	2.72981
32.23	2.7502
32.24	2.72191
32.25	2.72093
32.26	2.7275
32.27	2.73836
32.28	2.69362
32.29	2.71599
32.3	2.72619
32.31	2.76501
32.32	2.75382
32.33	2.73507
32.34	2.72093
32.35	2.74198
32.36	2.72553
32.37	2.72718
32.38	2.72553
32.39	2.70514
32.4	2.71599
32.41	2.76106
32.42	2.75645
32.43	2.74001
32.44	2.71007
32.45	2.72422
32.46	2.71829
32.47	2.73047
32.48	2.73902
32.49	2.74264
32.5	2.69921
32.51	2.74856
32.52	2.75612
32.53	2.72882
32.54	2.72257
32.55	2.70777
32.56	2.73507
32.57	2.74066
32.58	2.70612
32.59	2.72783
32.6	2.71698
32.61	2.67915
32.62	2.72849
32.63	2.73178
32.64	2.7127
32.65	2.71566
32.66	2.72125
32.67	2.72356
32.68	2.70777
32.69	2.68277
32.7	2.74165
32.71	2.74626
32.72	2.72191
32.73	2.72422
32.74	2.72422
32.75	2.72948
32.76	2.71797
32.77	2.75645
32.78	2.74428
32.79	2.7252
32.8	2.75185
32.81	2.70941
32.82	2.73112
32.83	2.75777
32.84	2.74626
32.85	2.75053
32.86	2.73902
32.87	2.72487
32.88	2.71928
32.89	2.71665
32.9	2.72882
32.91	2.71797
32.92	2.74231
32.93	2.73507
32.94	2.72783
32.95	2.70514
32.96	2.75843
32.97	2.7229
32.98	2.69856
32.99	2.74362
33	2.71566
33.01	2.70086
33.02	2.72191
33.03	2.73704
33.04	2.72356
33.05	2.74955
33.06	2.75448
33.07	2.73704
33.08	2.72093
33.09	2.74132
33.1	2.70579
33.11	2.72586
33.12	2.74099
33.13	2.73573
33.14	2.69494
33.15	2.75908
33.16	2.75086
33.17	2.70283
33.18	2.71336
33.19	2.70448
33.2	2.72718
33.21	2.73869
33.22	2.7206
33.23	2.72948
33.24	2.73968
33.25	2.72389
33.26	2.71731
33.27	2.70086
33.28	2.71862
33.29	2.77422
33.3	2.72191
33.31	2.73014
33.32	2.72093
33.33	2.74757
33.34	2.74922
33.35	2.73112
33.36	2.73902
33.37	2.75547
33.38	2.77882
33.39	2.70218
33.4	2.71106
33.41	2.72191
33.42	2.72356
33.43	2.75876
33.44	2.71797
33.45	2.7206
33.46	2.72849
33.47	2.75974
33.48	2.7354
33.49	2.73639
33.5	2.73836
33.51	2.74922
33.52	2.7354
33.53	2.73474
33.54	2.74724
33.55	2.74658
33.56	2.72224
33.57	2.73079
33.58	2.75744
33.59	2.74362
33.6	2.71862
33.61	2.72389
33.62	2.73672
33.63	2.70777
33.64	2.71171
33.65	2.69428
33.66	2.71862
33.67	2.75185
33.68	2.72389
33.69	2.73244
33.7	2.73376
33.71	2.69592
33.72	2.74329
33.73	2.73836
33.74	2.75711
33.75	2.73902
33.76	2.7331
33.77	2.72783
33.78	2.71599
33.79	2.7127
33.8	2.70645
33.81	2.68869
33.82	2.70382
33.83	2.72981
33.84	2.7275
33.85	2.69823
33.86	2.71106
33.87	2.7081
33.88	2.74626
33.89	2.7479
33.9	2.72356
33.91	2.72158
33.92	2.71797
33.93	2.7252
33.94	2.70974
33.95	2.70316
33.96	2.71632
33.97	2.74099
33.98	2.77224
33.99	2.74132
34	2.73672
34.01	2.75481
34.02	2.72191
34.03	2.74264
34.04	2.73211
34.05	2.73277
34.06	2.72093
34.07	2.70546
34.08	2.73211
34.09	2.73968
34.1	2.71994
34.11	2.74001
34.12	2.72685
34.13	2.7229
34.14	2.72981
34.15	2.71994
34.16	2.7354
34.17	2.74362
34.18	2.73277
34.19	2.72356
34.2	2.70514
34.21	2.74198
34.22	2.70744
34.23	2.72389
34.24	2.74724
34.25	2.715
34.26	2.71435
34.27	2.72915
34.28	2.72981
34.29	2.69165
34.3	2.70678
34.31	2.68902
34.32	2.70218
34.33	2.70974
34.34	2.7252
34.35	2.73211
34.36	2.69066
34.37	2.7081
34.38	2.7252
34.39	2.75481
34.4	2.71007
34.41	2.72356
34.42	2.74099
34.43	2.72356
34.44	2.73902
34.45	2.70316
34.46	2.71994
34.47	2.72981
34.48	2.74922
34.49	2.73803
34.5	2.71829
34.51	2.73145
34.52	2.72619
34.53	2.70843
34.54	2.73606
34.55	2.7354
34.56	2.72915
34.57	2.71829
34.58	2.71665
34.59	2.75777
34.6	2.75283
34.61	2.70283
34.62	2.71731
34.63	2.7331
34.64	2.74165
34.65	2.72125
34.66	2.7377
34.67	2.72981
34.68	2.74066
34.69	2.74165
34.7	2.7354
34.71	2.70645
34.72	2.6979
34.73	2.70119
34.74	2.73507
34.75	2.74132
34.76	2.7581
34.77	2.74626
34.78	2.72191
34.79	2.72685
34.8	2.72882
34.81	2.71533
34.82	2.71665
34.83	2.74297
34.84	2.71468
34.85	2.71204
34.86	2.73935
34.87	2.72323
34.88	2.71402
34.89	2.74264
34.9	2.7275
34.91	2.71402
34.92	2.70546
34.93	2.73639
34.94	2.74165
34.95	2.74626
34.96	2.76698
34.97	2.71961
34.98	2.75876
34.99	2.75218
35	2.71862
35.01	2.71599
35.02	2.71106
35.03	2.71468
35.04	2.76599
35.05	2.73573
35.06	2.70645
35.07	2.73441
35.08	2.73211
35.09	2.73014
35.1	2.73244
35.11	2.73343
35.12	2.71369
35.13	2.70744
35.14	2.72981
35.15	2.73474
35.16	2.73968
35.17	2.7104
35.18	2.74593
35.19	2.7456
35.2	2.73935
35.21	2.7331
35.22	2.73014
35.23	2.70843
35.24	2.74165
35.25	2.73244
35.26	2.72882
35.27	2.72882
35.28	2.73836
35.29	2.74132
35.3	2.7104
35.31	2.71698
35.32	2.75152
35.33	2.73441
35.34	2.71961
35.35	2.72981
35.36	2.73836
35.37	2.72158
35.38	2.75349
35.39	2.73277
35.4	2.71336
35.41	2.6877
35.42	2.72652
35.43	2.72224
35.44	2.73047
35.45	2.72948
35.46	2.73014
35.47	2.70349
35.48	2.69329
35.49	2.70908
35.5	2.71994
35.51	2.68967
35.52	2.70185
35.53	2.72586
35.54	2.73277
35.55	2.7377
35.56	2.72454
35.57	2.71862
35.58	2.75481
35.59	2.74066
35.6	2.72783
35.61	2.7502
35.62	2.74593
35.63	2.72718
35.64	2.73573
35.65	2.74856
35.66	2.72849
35.67	2.72125
35.68	2.71665
35.69	2.71171
35.7	2.72882
35.71	2.71764
35.72	2.7354
35.73	2.71731
35.74	2.71632
35.75	2.7377
35.76	2.71336
35.77	2.72619
35.78	2.71928
35.79	2.72027
35.8	2.72125
35.81	2.72224
35.82	2.70053
35.83	2.75053
35.84	2.76205
35.85	2.71566
35.86	2.73803
35.87	2.72685
35.88	2.74461
35.89	2.73376
35.9	2.73606
35.91	2.73376
35.92	2.74593
35.93	2.7275
35.94	2.7081
35.95	2.72487
35.96	2.75251
35.97	2.73704
35.98	2.70316
35.99	2.70283
36	2.71468
36.01	2.73441
36.02	2.73507
36.03	2.72948
36.04	2.72027
36.05	2.68178
36.06	2.72487
36.07	2.71862
36.08	2.74362
36.09	2.74987
36.1	2.76139
36.11	2.74955
36.12	2.73507
36.13	2.69757
36.14	2.72125
36.15	2.7127
36.16	2.7081
36.17	2.68639
36.18	2.70382
36.19	2.74297
36.2	2.73968
36.21	2.70579
36.22	2.72849
36.23	2.71994
36.24	2.75711
36.25	2.75514
36.26	2.71073
36.27	2.72158
36.28	2.74329
36.29	2.74066
36.3	2.71566
36.31	2.71369
36.32	2.71171
36.33	2.68639
36.34	2.69461
36.35	2.69592
36.36	2.70744
36.37	2.72586
36.38	2.72619
36.39	2.73836
36.4	2.7229
36.41	2.71402
36.42	2.73704
36.43	2.74527
36.44	2.70185
36.45	2.69395
36.46	2.7331
36.47	2.7252
36.48	2.71665
36.49	2.70514
36.5	2.71994
36.51	2.73803
36.52	2.74066
36.53	2.73606
36.54	2.74593
36.55	2.73639
36.56	2.74428
36.57	2.76106
36.58	2.75316
36.59	2.73408
36.6	2.73441
36.61	2.73014
36.62	2.715
36.63	2.71106
36.64	2.73145
36.65	2.73408
36.66	2.73244
36.67	2.72093
36.68	2.72816
36.69	2.72981
36.7	2.72323
36.71	2.71961
36.72	2.74132
36.73	2.7127
36.74	2.7479
36.75	2.73803
36.76	2.72125
36.77	2.71961
36.78	2.74066
36.79	2.76764
36.8	2.70974
36.81	2.72257
36.82	2.69
36.83	2.72093
36.84	2.74033
36.85	2.75974
36.86	2.73672
36.87	2.72915
36.88	2.71171
36.89	2.73244
36.9	2.71829
36.91	2.70645
36.92	2.72454
36.93	2.72422
36.94	2.74593
36.95	2.74757
36.96	2.73902
36.97	2.70514
36.98	2.7354
36.99	2.72422
37	2.73737
37.01	2.72158
37.02	2.75218
37.03	2.73639
37.04	2.71204
37.05	2.74691
37.06	2.7275
37.07	2.71007
37.08	2.72553
37.09	2.71468
37.1	2.71171
37.11	2.75744
37.12	2.72323
37.13	2.76435
37.14	2.74001
37.15	2.73441
37.16	2.72257
37.17	2.71303
37.18	2.74001
37.19	2.72915
37.2	2.72553
37.21	2.72915
37.22	2.7081
37.23	2.71171
37.24	2.7081
37.25	2.73376
37.26	2.72619
37.27	2.72915
37.28	2.73079
37.29	2.71106
37.3	2.70612
37.31	2.73376
37.32	2.7331
37.33	2.72093
37.34	2.72553
37.35	2.72487
37.36	2.71698
37.37	2.70678
37.38	2.70843
37.39	2.72027
37.4	2.72356
37.41	2.73573
37.42	2.74889
37.43	2.71698
37.44	2.73244
37.45	2.71237
37.46	2.7275
37.47	2.70875
37.48	2.71336
37.49	2.72356
37.5	2.72882
37.51	2.71961
37.52	2.71698
37.53	2.76303
37.54	2.74033
37.55	2.71435
37.56	2.75152
37.57	2.75876
37.58	2.72685
37.59	2.71073
37.6	2.75448
37.61	2.72619
37.62	2.72487
37.63	2.70678
37.64	2.69987
37.65	2.71533
37.66	2.72718
37.67	2.70546
37.68	2.72454
37.69	2.72915
37.7	2.71829
37.71	2.71829
37.72	2.68967
37.73	2.70448
37.74	2.73047
37.75	2.71204
37.76	2.73343
37.77	2.75415
37.78	2.74066
37.79	2.71994
37.8	2.71303
37.81	2.72323
37.82	2.73244
37.83	2.74626
37.84	2.74132
37.85	2.7354
37.86	2.70053
37.87	2.74691
37.88	2.7331
37.89	2.72586
37.9	2.73639
37.91	2.7354
37.92	2.76073
37.93	2.69132
37.94	2.71994
37.95	2.73968
37.96	2.74494
37.97	2.72915
37.98	2.7479
37.99	2.73244
38	2.71862
38.01	2.72224
38.02	2.75086
38.03	2.74165
38.04	2.70843
38.05	2.72389
38.06	2.74264
38.07	2.73441
38.08	2.74691
38.09	2.71468
38.1	2.72586
38.11	2.73047
38.12	2.7377
38.13	2.74691
38.14	2.71204
38.15	2.71895
38.16	2.72882
38.17	2.73474
38.18	2.75185
38.19	2.71698
38.2	2.74297
38.21	2.7683
38.22	2.74955
38.23	2.7275
38.24	2.73573
38.25	2.74658
38.26	2.75711
38.27	2.71797
38.28	2.69066
38.29	2.72257
38.3	2.73869
38.31	2.74329
38.32	2.71928
38.33	2.7206
38.34	2.73737
38.35	2.74395
38.36	2.72093
38.37	2.71402
38.38	2.72422
38.39	2.74461
38.4	2.73606
38.41	2.69428
38.42	2.66895
38.43	2.71829
38.44	2.72158
38.45	2.72422
38.46	2.74231
38.47	2.69527
38.48	2.67323
38.49	2.68737
38.5	2.69132
38.51	2.70645
38.52	2.7331
38.53	2.70546
38.54	2.6479
38.55	2.73145
38.56	2.73573
38.57	2.72685
38.58	2.72158
38.59	2.75316
38.6	2.72356
38.61	2.72915
38.62	2.70843
38.63	2.71303
38.64	2.70744
38.65	2.7081
38.66	2.71303
38.67	2.71632
38.68	2.71106
38.69	2.69856
38.7	2.71566
38.71	2.69592
38.72	2.73573
38.73	2.74264
38.74	2.7331
38.75	2.71665
38.76	2.72257
38.77	2.73441
38.78	2.72553
38.79	2.67027
38.8	2.70053
38.81	2.73606
38.82	2.71764
38.83	2.73112
38.84	2.68902
38.85	2.71204
38.86	2.71698
38.87	2.70908
38.88	2.70086
38.89	2.72915
38.9	2.7581
38.91	2.72652
38.92	2.70941
38.93	2.70481
38.94	2.70579
38.95	2.72586
38.96	2.71566
38.97	2.75481
38.98	2.73244
38.99	2.67421
39	2.72685
39.01	2.75612
39.02	2.73672
39.03	2.7354
39.04	2.70579
39.05	2.70218
39.06	2.74889
39.07	2.7331
39.08	2.72191
39.09	2.71797
39.1	2.7479
39.11	2.73573
39.12	2.74823
39.13	2.74823
39.14	2.75053
39.15	2.72915
39.16	2.75218
39.17	2.72125
39.18	2.72257
39.19	2.75283
39.2	2.71073
39.21	2.70777
39.22	2.70579
39.23	2.7127
39.24	2.74428
39.25	2.69823
39.26	2.71073
39.27	2.70645
39.28	2.70908
39.29	2.73014
39.3	2.71303
39.31	2.74297
39.32	2.70645
39.33	2.70843
39.34	2.70481
39.35	2.70119
39.36	2.71336
39.37	2.68935
39.38	2.72158
39.39	2.68902
39.4	2.68441
39.41	2.73606
39.42	2.7456
39.43	2.70645
39.44	2.69198
39.45	2.70875
39.46	2.72487
39.47	2.70119
39.48	2.73672
39.49	2.71961
39.5	2.68935
39.51	2.69296
39.52	2.72948
39.53	2.71928
39.54	2.7081
39.55	2.70185
39.56	2.69658
39.57	2.69658
39.58	2.6956
39.59	2.70448
39.6	2.71928
39.61	2.71928
39.62	2.74033
39.63	2.71171
39.64	2.73869
39.65	2.71139
39.66	2.69823
39.67	2.72718
39.68	2.74198
39.69	2.69889
39.7	2.71961
39.71	2.69264
39.72	2.68902
39.73	2.73178
39.74	2.71731
39.75	2.69296
39.76	2.70382
39.77	2.69691
39.78	2.67816
39.79	2.71862
39.8	2.75974
39.81	2.72981
39.82	2.71566
39.83	2.7206
39.84	2.7558
39.85	2.76731
39.86	2.73803
39.87	2.72619
39.88	2.7252
39.89	2.74658
39.9	2.7206
39.91	2.71862
39.92	2.73639
39.93	2.73968
39.94	2.73178
39.95	2.71369
39.96	2.70546
39.97	2.72125
39.98	2.71731
39.99	2.72619
40	2.73902
40.01	2.76205
40.02	2.72323
40.03	2.69
40.04	2.72487
40.05	2.71961
40.06	2.72816
40.07	2.75086
40.08	2.7377
40.09	2.72454
40.1	2.74033
40.11	2.7377
40.12	2.71665
40.13	2.73507
40.14	2.74658
40.15	2.72125
40.16	2.72652
40.17	2.71303
40.18	2.7127
40.19	2.71994
40.2	2.7377
40.21	2.72915
40.22	2.69691
40.23	2.74099
40.24	2.72948
40.25	2.71402
40.26	2.70119
40.27	2.72816
40.28	2.66994
40.29	2.70843
40.3	2.74955
40.31	2.72586
40.32	2.71797
40.33	2.73244
40.34	2.73376
40.35	2.73902
40.36	2.69757
40.37	2.73408
40.38	2.72191
40.39	2.74757
40.4	2.71895
40.41	2.72224
40.42	2.71599
40.43	2.76665
40.44	2.72027
40.45	2.70283
40.46	2.68112
40.47	2.72816
40.48	2.71994
40.49	2.72718
40.5	2.70678
40.51	2.72718
40.52	2.715
40.53	2.71829
40.54	2.76303
40.55	2.7081
40.56	2.7104
40.57	2.72553
40.58	2.72586
40.59	2.70415
40.6	2.72783
40.61	2.71764
40.62	2.7127
40.63	2.72487
40.64	2.68935
40.65	2.73639
40.66	2.74691
40.67	2.71829
40.68	2.71533
40.69	2.72718
40.7	2.74428
40.71	2.75645
40.72	2.72027
40.73	2.76961
40.74	2.73935
40.75	2.72915
40.76	2.72981
40.77	2.71073
40.78	2.69658
40.79	2.72619
40.8	2.7104
40.81	2.71139
40.82	2.7683
40.83	2.73935
40.84	2.73935
40.85	2.7354
40.86	2.73376
40.87	2.76073
40.88	2.73869
40.89	2.71435
40.9	2.72191
40.91	2.7229
40.92	2.70579
40.93	2.72981
40.94	2.72783
40.95	2.74165
40.96	2.75876
40.97	2.71862
40.98	2.70645
40.99	2.70415
41	2.74132
41.01	2.73244
41.02	2.69658
41.03	2.74231
41.04	2.73507
41.05	2.73902
41.06	2.70283
41.07	2.72586
41.08	2.73507
41.09	2.71764
41.1	2.71566
41.11	2.72323
41.12	2.72454
41.13	2.72454
41.14	2.70316
41.15	2.7025
41.16	2.74165
41.17	2.73079
41.18	2.73836
41.19	2.73112
41.2	2.71303
41.21	2.7331
41.22	2.7377
41.23	2.75448
41.24	2.71468
41.25	2.70974
41.26	2.71073
41.27	2.7275
41.28	2.72323
41.29	2.72882
41.3	2.71204
41.31	2.70941
41.32	2.73836
41.33	2.73047
41.34	2.71336
41.35	2.72849
41.36	2.71237
41.37	2.73935
41.38	2.71862
41.39	2.76139
41.4	2.74527
41.41	2.71797
41.42	2.73968
41.43	2.71336
41.44	2.71139
41.45	2.71665
41.46	2.72257
41.47	2.72487
41.48	2.70744
41.49	2.74428
41.5	2.74099
41.51	2.73277
41.52	2.75645
41.53	2.70086
41.54	2.73869
41.55	2.71862
41.56	2.72882
41.57	2.74165
41.58	2.71994
41.59	2.74165
41.6	2.74066
41.61	2.74428
41.62	2.69033
41.63	2.73639
41.64	2.70941
41.65	2.72454
41.66	2.74922
41.67	2.73704
41.68	2.74297
41.69	2.74099
41.7	2.7581
41.71	2.70843
41.72	2.71402
41.73	2.71007
41.74	2.73145
41.75	2.73112
41.76	2.72553
41.77	2.72323
41.78	2.71237
41.79	2.70941
41.8	2.71797
41.81	2.70119
41.82	2.73079
41.83	2.72389
41.84	2.71632
41.85	2.72323
41.86	2.71369
41.87	2.73704
41.88	2.72389
41.89	2.73376
41.9	2.74297
41.91	2.75185
41.92	2.72158
41.93	2.74066
41.94	2.70546
41.95	2.71928
41.96	2.73672
41.97	2.72093
41.98	2.70218
41.99	2.71928
42	2.73047
42.01	2.74922
42.02	2.74099
42.03	2.7604
42.04	2.70218
42.05	2.70908
42.06	2.7206
42.07	2.71303
42.08	2.71402
42.09	2.71797
42.1	2.72487
42.11	2.72948
42.12	2.71698
42.13	2.74099
42.14	2.71632
42.15	2.6956
42.16	2.73079
42.17	2.7275
42.18	2.70185
42.19	2.7456
42.2	2.74922
42.21	2.75612
42.22	2.73704
42.23	2.73178
42.24	2.73606
42.25	2.74626
42.26	2.73836
42.27	2.72158
42.28	2.73211
42.29	2.72027
42.3	2.7104
42.31	2.72389
42.32	2.72718
42.33	2.71961
42.34	2.68869
42.35	2.6979
42.36	2.70448
42.37	2.72652
42.38	2.70579
42.39	2.69658
42.4	2.72125
42.41	2.72685
42.42	2.72323
42.43	2.69165
42.44	2.72224
42.45	2.74461
42.46	2.72685
42.47	2.71599
42.48	2.69099
42.49	2.73474
42.5	2.72915
42.51	2.715
42.52	2.71303
42.53	2.72718
42.54	2.74329
42.55	2.71599
42.56	2.76303
42.57	2.72685
42.58	2.72652
42.59	2.71961
42.6	2.71895
42.61	2.72849
42.62	2.73737
42.63	2.72849
42.64	2.72125
42.65	2.71961
42.66	2.7127
42.67	2.72224
42.68	2.7229
42.69	2.72882
42.7	2.75678
42.71	2.71698
42.72	2.7104
42.73	2.73573
42.74	2.73145
42.75	2.76468
42.76	2.7456
42.77	2.70645
42.78	2.7275
42.79	2.74297
42.8	2.72224
42.81	2.71336
42.82	2.72093
42.83	2.74165
42.84	2.70152
42.85	2.71665
42.86	2.73244
42.87	2.67619
42.88	2.71895
42.89	2.74264
42.9	2.74362
42.91	2.73507
42.92	2.73968
42.93	2.71007
42.94	2.71566
42.95	2.71007
42.96	2.73376
42.97	2.72718
42.98	2.73178
42.99	2.73737
43	2.75415
43.01	2.71402
43.02	2.72981
43.03	2.74165
43.04	2.72619
43.05	2.69527
43.06	2.71139
43.07	2.72816
43.08	2.7377
43.09	2.72685
43.1	2.75086
43.11	2.74757
43.12	2.73343
43.13	2.73145
43.14	2.72191
43.15	2.7354
43.16	2.73573
43.17	2.73112
43.18	2.71994
43.19	2.75316
43.2	2.7002
43.21	2.69296
43.22	2.70382
43.23	2.74889
43.24	2.73079
43.25	2.71829
43.26	2.73145
43.27	2.7127
43.28	2.73047
43.29	2.70941
43.3	2.71139
43.31	2.70349
43.32	2.68704
43.33	2.70908
43.34	2.74889
43.35	2.7479
43.36	2.72981
43.37	2.70053
43.38	2.7104
43.39	2.72257
43.4	2.73836
43.41	2.73441
43.42	2.70152
43.43	2.72849
43.44	2.73079
43.45	2.74856
43.46	2.73277
43.47	2.73047
43.48	2.73672
43.49	2.71797
43.5	2.71731
43.51	2.72422
43.52	2.71336
43.53	2.73376
43.54	2.73507
43.55	2.71303
43.56	2.7331
43.57	2.74001
43.58	2.72915
43.59	2.71731
43.6	2.7252
43.61	2.68639
43.62	2.72158
43.63	2.71994
43.64	2.69461
43.65	2.67849
43.66	2.71994
43.67	2.76632
43.68	2.72422
43.69	2.70152
43.7	2.715
43.71	2.70415
43.72	2.72586
43.73	2.71402
43.74	2.70481
43.75	2.71139
43.76	2.715
43.77	2.70053
43.78	2.715
43.79	2.73836
43.8	2.71336
43.81	2.7354
43.82	2.71435
43.83	2.71139
43.84	2.71994
43.85	2.66862
43.86	2.7275
43.87	2.73112
43.88	2.71599
43.89	2.73244
43.9	2.76402
43.91	2.71435
43.92	2.71533
43.93	2.75152
43.94	2.7331
43.95	2.70612
43.96	2.71007
43.97	2.70053
43.98	2.73507
43.99	2.70678
44	2.70448
44.01	2.71204
44.02	2.69264
44.03	2.72915
44.04	2.73639
44.05	2.68441
44.06	2.71731
44.07	2.72783
44.08	2.73836
44.09	2.74297
44.1	2.73277
44.11	2.74527
44.12	2.76073
44.13	2.75086
44.14	2.75382
44.15	2.73639
44.16	2.72685
44.17	2.70349
44.18	2.73408
44.19	2.76698
44.2	2.70185
44.21	2.7229
44.22	2.7275
44.23	2.70678
44.24	2.71895
44.25	2.76139
44.26	2.73672
44.27	2.73211
44.28	2.71533
44.29	2.70843
44.3	2.715
44.31	2.72586
44.32	2.71204
44.33	2.76073
44.34	2.76369
44.35	2.73507
44.36	2.70415
44.37	2.70053
44.38	2.71171
44.39	2.7275
44.4	2.7354
44.41	2.73672
44.42	2.73112
44.43	2.73441
44.44	2.71566
44.45	2.73606
44.46	2.715
44.47	2.71171
44.48	2.68836
44.49	2.7104
44.5	2.71829
44.51	2.68606
44.52	2.72783
44.53	2.73803
44.54	2.74428
44.55	2.69264
44.56	2.71073
44.57	2.70579
44.58	2.70053
44.59	2.70415
44.6	2.72718
44.61	2.73376
44.62	2.72389
44.63	2.75612
44.64	2.71994
44.65	2.7002
44.66	2.70448
44.67	2.71566
44.68	2.71533
44.69	2.70678
44.7	2.71895
44.71	2.75415
44.72	2.76501
44.73	2.70777
44.74	2.74362
44.75	2.73672
44.76	2.67915
44.77	2.73935
44.78	2.71698
44.79	2.71829
44.8	2.71632
44.81	2.74099
44.82	2.74001
44.83	2.70053
44.84	2.72323
44.85	2.71698
44.86	2.72191
44.87	2.70152
44.88	2.74099
44.89	2.71566
44.9	2.70546
44.91	2.7127
44.92	2.73079
44.93	2.69987
44.94	2.70974
44.95	2.68507
44.96	2.71402
44.97	2.73277
44.98	2.70711
44.99	2.71961
45	2.74264
45.01	2.71566
45.02	2.71797
45.03	2.72125
45.04	2.74955
45.05	2.72389
45.06	2.69165
45.07	2.71435
45.08	2.69592
45.09	2.70053
45.1	2.71007
45.11	2.72849
45.12	2.71073
45.13	2.70908
45.14	2.74099
45.15	2.74132
45.16	2.73376
45.17	2.70283
45.18	2.73244
45.19	2.73639
45.2	2.72816
45.21	2.70152
45.22	2.69428
45.23	2.71402
45.24	2.75086
45.25	2.72257
45.26	2.75086
45.27	2.73014
45.28	2.70119
45.29	2.69494
45.3	2.71698
45.31	2.70711
45.32	2.72422
45.33	2.73474
45.34	2.75086
45.35	2.74626
45.36	2.72257
45.37	2.69691
45.38	2.71632
45.39	2.71566
45.4	2.73408
45.41	2.72389
45.42	2.71533
45.43	2.7002
45.44	2.7275
45.45	2.70119
45.46	2.73145
45.47	2.72652
45.48	2.70349
45.49	2.72356
45.5	2.72422
45.51	2.72783
45.52	2.74329
45.53	2.73474
45.54	2.6979
45.55	2.73672
45.56	2.70908
45.57	2.71402
45.58	2.74428
45.59	2.72389
45.6	2.72586
45.61	2.7127
45.62	2.73079
45.63	2.70612
45.64	2.71632
45.65	2.69329
45.66	2.70875
45.67	2.70053
45.68	2.70875
45.69	2.71533
45.7	2.73902
45.71	2.72652
45.72	2.71336
45.73	2.74297
45.74	2.70185
45.75	2.70744
45.76	2.77356
45.77	2.73639
45.78	2.74757
45.79	2.72816
45.8	2.70777
45.81	2.69592
45.82	2.70514
45.83	2.69889
45.84	2.69033
45.85	2.72619
45.86	2.72224
45.87	2.70316
45.88	2.72652
45.89	2.7377
45.9	2.71665
45.91	2.74362
45.92	2.71468
45.93	2.70744
45.94	2.69691
45.95	2.74198
45.96	2.71665
45.97	2.74329
45.98	2.7331
45.99	2.76106
46	2.73474
46.01	2.72816
46.02	2.76731
46.03	2.72487
46.04	2.73408
46.05	2.71204
46.06	2.70152
46.07	2.70645
46.08	2.7127
46.09	2.72125
46.1	2.72652
46.11	2.72718
46.12	2.71402
46.13	2.70514
46.14	2.69362
46.15	2.70875
46.16	2.72816
46.17	2.72718
46.18	2.72356
46.19	2.71468
46.2	2.7127
46.21	2.72027
46.22	2.70152
46.23	2.67586
46.24	2.71829
46.25	2.73704
46.26	2.73145
46.27	2.71402
46.28	2.69625
46.29	2.71204
46.3	2.71237
46.31	2.73606
46.32	2.72553
46.33	2.72718
46.34	2.73639
46.35	2.6979
46.36	2.7229
46.37	2.7354
46.38	2.70908
46.39	2.72619
46.4	2.74527
46.41	2.72389
46.42	2.73211
46.43	2.7127
46.44	2.71303
46.45	2.70218
46.46	2.73277
46.47	2.71698
46.48	2.68967
46.49	2.72783
46.5	2.71895
46.51	2.76632
46.52	2.76139
46.53	2.69099
46.54	2.70349
46.55	2.73507
46.56	2.69527
46.57	2.75547
46.58	2.74362
46.59	2.72652
46.6	2.73474
46.61	2.72915
46.62	2.69362
46.63	2.70974
46.64	2.71204
46.65	2.69757
46.66	2.75152
46.67	2.72718
46.68	2.72257
46.69	2.71402
46.7	2.71797
46.71	2.74001
46.72	2.74362
46.73	2.73079
46.74	2.7252
46.75	2.72125
46.76	2.71862
46.77	2.69823
46.78	2.69856
46.79	2.68013
46.8	2.72125
46.81	2.7331
46.82	2.73639
46.83	2.69987
46.84	2.72191
46.85	2.74494
46.86	2.71533
46.87	2.74066
46.88	2.7252
46.89	2.71533
46.9	2.71764
46.91	2.72948
46.92	2.70349
46.93	2.7002
46.94	2.74329
46.95	2.72093
46.96	2.71665
46.97	2.71928
46.98	2.72027
46.99	2.74428
47	2.7377
47.01	2.72718
47.02	2.70546
47.03	2.73112
47.04	2.72652
47.05	2.70744
47.06	2.71632
47.07	2.72849
47.08	2.74955
47.09	2.74593
47.1	2.73408
47.11	2.6956
47.12	2.7002
47.13	2.70645
47.14	2.71928
47.15	2.73474
47.16	2.73376
47.17	2.69889
47.18	2.71369
47.19	2.70974
47.2	2.72257
47.21	2.71204
47.22	2.70711
47.23	2.71369
47.24	2.72191
47.25	2.73376
47.26	2.71764
47.27	2.70744
47.28	2.74922
47.29	2.74066
47.3	2.70974
47.31	2.72816
47.32	2.7275
47.33	2.69823
47.34	2.73277
47.35	2.70974
47.36	2.71533
47.37	2.72422
47.38	2.73803
47.39	2.7275
47.4	2.75481
47.41	2.72257
47.42	2.73047
47.43	2.74362
47.44	2.70843
47.45	2.71862
47.46	2.71566
47.47	2.7127
47.48	2.7479
47.49	2.73507
47.5	2.71895
47.51	2.73079
47.52	2.69823
47.53	2.69362
47.54	2.71566
47.55	2.70316
47.56	2.7229
47.57	2.70645
47.58	2.72191
47.59	2.7229
47.6	2.70908
47.61	2.71139
47.62	2.74066
47.63	2.73014
47.64	2.70514
47.65	2.70645
47.66	2.7502
47.67	2.72882
47.68	2.71698
47.69	2.7206
47.7	2.69724
47.71	2.70941
47.72	2.76172
47.73	2.6956
47.74	2.70777
47.75	2.70218
47.76	2.70777
47.77	2.73441
47.78	2.73178
47.79	2.7275
47.8	2.72224
47.81	2.71698
47.82	2.7081
47.83	2.75711
47.84	2.76994
47.85	2.71171
47.86	2.7127
47.87	2.71961
47.88	2.72389
47.89	2.75547
47.9	2.74922
47.91	2.73803
47.92	2.71073
47.93	2.7331
47.94	2.70875
47.95	2.70185
47.96	2.73408
47.97	2.74987
47.98	2.70053
47.99	2.73441
48	2.70777
48.01	2.72093
48.02	2.73178
48.03	2.71007
48.04	2.72323
48.05	2.73639
48.06	2.7252
48.07	2.73672
48.08	2.73079
48.09	2.7252
48.1	2.71895
48.11	2.69461
48.12	2.70645
48.13	2.7354
48.14	2.69757
48.15	2.70875
48.16	2.7331
48.17	2.72619
48.18	2.73869
48.19	2.73968
48.2	2.68671
48.21	2.69625
48.22	2.71007
48.23	2.71665
48.24	2.73277
48.25	2.72849
48.26	2.72718
48.27	2.72718
48.28	2.7275
48.29	2.74198
48.3	2.74626
48.31	2.73244
48.32	2.71928
48.33	2.73803
48.34	2.72224
48.35	2.73408
48.36	2.72948
48.37	2.72093
48.38	2.72454
48.39	2.74001
48.4	2.74297
48.41	2.71665
48.42	2.71797
48.43	2.68375
48.44	2.69428
48.45	2.72158
48.46	2.70349
48.47	2.6979
48.48	2.73737
48.49	2.7502
48.5	2.72027
48.51	2.73672
48.52	2.69625
48.53	2.74165
48.54	2.71237
48.55	2.69757
48.56	2.71402
48.57	2.72586
48.58	2.72619
48.59	2.70843
48.6	2.72948
48.61	2.74395
48.62	2.73606
48.63	2.67454
48.64	2.69461
48.65	2.68606
48.66	2.73902
48.67	2.72224
48.68	2.70283
48.69	2.69494
48.7	2.69099
48.71	2.71862
48.72	2.73441
48.73	2.75316
48.74	2.74033
48.75	2.70053
48.76	2.67915
48.77	2.72718
48.78	2.77027
48.79	2.7331
48.8	2.71237
48.81	2.7229
48.82	2.71402
48.83	2.7502
48.84	2.72487
48.85	2.72553
48.86	2.73376
48.87	2.72323
48.88	2.73507
48.89	2.73178
48.9	2.75251
48.91	2.70612
48.92	2.71764
48.93	2.72685
48.94	2.71533
48.95	2.73376
48.96	2.74198
48.97	2.72652
48.98	2.74856
48.99	2.73606
49	2.73047
49.01	2.73507
49.02	2.72125
49.03	2.72948
49.04	2.71139
49.05	2.72191
49.06	2.74823
49.07	2.71007
49.08	2.73408
49.09	2.74626
49.1	2.72323
49.11	2.74264
49.12	2.74231
49.13	2.74329
49.14	2.72652
49.15	2.7229
49.16	2.74823
49.17	2.71369
49.18	2.74691
49.19	2.71632
49.2	2.71566
49.21	2.75415
49.22	2.7627
49.23	2.72718
49.24	2.7229
49.25	2.74593
49.26	2.72915
49.27	2.71994
49.28	2.7025
49.29	2.71862
49.3	2.72158
49.31	2.72718
49.32	2.72718
49.33	2.74658
49.34	2.7377
49.35	2.70086
49.36	2.71139
49.37	2.71303
49.38	2.73836
49.39	2.73507
49.4	2.73244
49.41	2.74132
49.42	2.73935
49.43	2.69099
49.44	2.71336
49.45	2.715
49.46	2.72027
49.47	2.71566
49.48	2.72389
49.49	2.74165
49.5	2.69165
49.51	2.74297
49.52	2.71303
49.53	2.72619
49.54	2.69921
49.55	2.7206
49.56	2.72191
49.57	2.73639
49.58	2.73704
49.59	2.73639
49.6	2.70185
49.61	2.72323
49.62	2.7206
49.63	2.7354
49.64	2.73803
49.65	2.76402
49.66	2.75119
49.67	2.70974
49.68	2.71204
49.69	2.71007
49.7	2.73047
49.71	2.69889
49.72	2.73803
49.73	2.73474
49.74	2.73606
49.75	2.72257
49.76	2.7229
49.77	2.75514
49.78	2.75251
49.79	2.71303
49.8	2.71665
49.81	2.70546
49.82	2.73178
49.83	2.6956
49.84	2.69
49.85	2.73408
49.86	2.73704
49.87	2.71961
49.88	2.7377
49.89	2.72191
49.9	2.73704
49.91	2.75645
49.92	2.74856
49.93	2.73573
49.94	2.75119
49.95	2.74395
49.96	2.71171
49.97	2.71204
49.98	2.73178
49.99	2.7081
50	2.73178
