"BIO-KINE ASCII FILE"
"_COMMENT"	"MOS-500 Spectrometer"
"_COMMENT"	"Kinetics measurement"
"_COMMENT"	"Y Unit : Volt,  X Unit : s"
"_COMMENT"	"Excitation wavelength : 380 nm"
"_COMMENT"	"Fentes bandwidth =  1 nm"
"_COMMENT"	"HV= 1000V"
"_COMMENT"	"Timebase  1 =  .01 s   3001 pts"
"_SFM"	"SFM-400 /S  Advanced mode"
"_SFM"	"Ratio : S1: 2.5, S2: 0, S3: 0, S4: 1"
"_SFM"	"Content : S1: , S2: , S3: , S4:"
"_SFM"	"Concentration : S1: , S2: , S3: , S4:"
"_SFM"	"Total volume : 209 µl  Flow : 3.5 mL/s"
"_SFM"	"Acquisition start :  10 ms before stop"
"_SFM"	"cuve=FC-15, s1=10 ml , s2=10 ml , s3=10 ml , s4=1.9 ml"
"_UNITX"	"s"
"_UNITY"	"Volt"
"_DELTAX"	0
"_DATA"
1e-300	2.29789
0.01	2.32947
0.02	2.33999
0.03	2.38934
0.04	2.40545
0.05	2.43901
0.06	2.4423
0.07	2.48473
0.08	2.4923
0.09	2.48868
0.1	2.47486
0.11	2.47651
0.12	2.49131
0.13	2.48342
0.14	2.51927
0.15	2.51566
0.16	2.50184
0.17	2.49493
0.18	2.51105
0.19	2.5196
0.2	2.54197
0.21	2.50217
0.22	2.52223
0.23	2.54724
0.24	2.49921
0.25	2.51302
0.26	2.51533
0.27	2.54164
0.28	2.52783
0.29	2.52914
0.3	2.53243
0.31	2.51434
0.32	2.5377
0.33	2.51697
0.34	2.52256
0.35	2.52816
0.36	2.52914
0.37	2.52947
0.38	2.55118
0.39	2.52223
0.4	2.54526
0.41	2.52651
0.42	2.51072
0.43	2.51763
0.44	2.54691
0.45	2.56895
0.46	2.5298
0.47	2.52322
0.48	2.53934
0.49	2.52487
0.5	2.56895
0.51	2.56007
0.52	2.51927
0.53	2.50743
0.54	2.52421
0.55	2.53868
0.56	2.51631
0.57	2.5377
0.58	2.53441
0.59	2.51566
0.6	2.47717
0.61	2.50644
0.62	2.52355
0.63	2.54789
0.64	2.54362
0.65	2.52651
0.66	2.50085
0.67	2.52355
0.68	2.56204
0.69	2.52684
0.7	2.53638
0.71	2.52289
0.72	2.54296
0.73	2.50546
0.74	2.5275
0.75	2.50776
0.76	2.5173
0.77	2.49691
0.78	2.53408
0.79	2.53177
0.8	2.54099
0.81	2.53967
0.82	2.51862
0.83	2.51105
0.84	2.49329
0.85	2.52816
0.86	2.51335
0.87	2.52092
0.88	2.51171
0.89	2.53934
0.9	2.51335
0.91	2.52421
0.92	2.49098
0.93	2.50283
0.94	2.51829
0.95	2.51533
0.96	2.48309
0.97	2.51533
0.98	2.53375
0.99	2.52454
1	2.51533
1.01	2.53375
1.02	2.52322
1.03	2.54691
1.04	2.53638
1.05	2.52355
1.06	2.55678
1.07	2.52256
1.08	2.50941
1.09	2.51796
1.1	2.50612
1.11	2.53901
1.12	2.50348
1.13	2.52454
1.14	2.52059
1.15	2.52421
1.16	2.50151
1.17	2.51006
1.18	2.54526
1.19	2.56072
1.2	2.55414
1.21	2.53671
1.22	2.5377
1.23	2.54131
1.24	2.51072
1.25	2.53572
1.26	2.50743
1.27	2.50381
1.28	2.51171
1.29	2.50644
1.3	2.51566
1.31	2.52289
1.32	2.5298
1.33	2.53572
1.34	2.5173
1.35	2.49559
1.36	2.5298
1.37	2.49954
1.38	2.52585
1.39	2.52092
1.4	2.53079
1.41	2.52059
1.42	2.52552
1.43	2.53572
1.44	2.55447
1.45	2.5173
1.46	2.51368
1.47	2.53079
1.48	2.53539
1.49	2.52618
1.5	2.5252
1.51	2.55053
1.52	2.49888
1.53	2.52026
1.54	2.50151
1.55	2.51895
1.56	2.50579
1.57	2.52355
1.58	2.52026
1.59	2.51829
1.6	2.52421
1.61	2.53276
1.62	2.4844
1.63	2.53441
1.64	2.54658
1.65	2.53013
1.66	2.52454
1.67	2.51862
1.68	2.57092
1.69	2.53638
1.7	2.54329
1.71	2.52487
1.72	2.52256
1.73	2.50316
1.74	2.5025
1.75	2.49987
1.76	2.52717
1.77	2.50118
1.78	2.52092
1.79	2.5673
1.8	2.53802
1.81	2.53145
1.82	2.54164
1.83	2.51204
1.84	2.50118
1.85	2.55085
1.86	2.50941
1.87	2.48967
1.88	2.49362
1.89	2.5298
1.9	2.53079
1.91	2.51467
1.92	2.49691
1.93	2.54921
1.94	2.50513
1.95	2.52223
1.96	2.50184
1.97	2.52355
1.98	2.49394
1.99	2.50447
2	2.49691
2.01	2.51993
2.02	2.52914
2.03	2.50875
2.04	2.5025
2.05	2.52125
2.06	2.54493
2.07	2.50579
2.08	2.49888
2.09	2.52223
2.1	2.53276
2.11	2.49296
2.12	2.52223
2.13	2.54691
2.14	2.54526
2.15	2.52092
2.16	2.49691
2.17	2.51434
2.18	2.50908
2.19	2.51829
2.2	2.52487
2.21	2.51697
2.22	2.48802
2.23	2.50283
2.24	2.50743
2.25	2.54164
2.26	2.53309
2.27	2.53342
2.28	2.4844
2.29	2.50381
2.3	2.49691
2.31	2.51927
2.32	2.53177
2.33	2.50316
2.34	2.51664
2.35	2.5252
2.36	2.50579
2.37	2.51533
2.38	2.49131
2.39	2.53441
2.4	2.52322
2.41	2.50447
2.42	2.53177
2.43	2.49822
2.44	2.50809
2.45	2.53342
2.46	2.51171
2.47	2.55941
2.48	2.50875
2.49	2.47815
2.5	2.53375
2.51	2.51368
2.52	2.50809
2.53	2.54888
2.54	2.51862
2.55	2.50941
2.56	2.51598
2.57	2.51796
2.58	2.48934
2.59	2.5071
2.6	2.50019
2.61	2.48704
2.62	2.51204
2.63	2.48967
2.64	2.50677
2.65	2.47881
2.66	2.48046
2.67	2.4844
2.68	2.50447
2.69	2.50184
2.7	2.50743
2.71	2.52552
2.72	2.51862
2.73	2.52816
2.74	2.50612
2.75	2.49756
2.76	2.50184
2.77	2.52684
2.78	2.52026
2.79	2.50151
2.8	2.53506
2.81	2.50776
2.82	2.51368
2.83	2.51467
2.84	2.50447
2.85	2.49065
2.86	2.52651
2.87	2.52947
2.88	2.4946
2.89	2.52816
2.9	2.50776
2.91	2.5423
2.92	2.51993
2.93	2.52289
2.94	2.48901
2.95	2.51533
2.96	2.51171
2.97	2.52684
2.98	2.50151
2.99	2.49427
3	2.50546
3.01	2.51434
3.02	2.51829
3.03	2.50052
3.04	2.51829
3.05	2.52256
3.06	2.52421
3.07	2.53474
3.08	2.52026
3.09	2.50579
3.1	2.49329
3.11	2.5377
3.12	2.52289
3.13	2.51664
3.14	2.49427
3.15	2.49
3.16	2.48671
3.17	2.50809
3.18	2.52191
3.19	2.54066
3.2	2.54658
3.21	2.51368
3.22	2.50743
3.23	2.50019
3.24	2.53342
3.25	2.51467
3.26	2.52783
3.27	2.51072
3.28	2.50316
3.29	2.47552
3.3	2.52322
3.31	2.50546
3.32	2.52914
3.33	2.53243
3.34	2.5252
3.35	2.53474
3.36	2.51697
3.37	2.51237
3.38	2.52914
3.39	2.48605
3.4	2.4923
3.41	2.5127
3.42	2.49559
3.43	2.5127
3.44	2.54296
3.45	2.53704
3.46	2.5298
3.47	2.5173
3.48	2.515
3.49	2.47158
3.5	2.47322
3.51	2.52849
3.52	2.53934
3.53	2.47355
3.54	2.49625
3.55	2.5048
3.56	2.49065
3.57	2.52717
3.58	2.54822
3.59	2.52223
3.6	2.50546
3.61	2.50381
3.62	2.55546
3.63	2.49263
3.64	2.48473
3.65	2.52355
3.66	2.48309
3.67	2.48112
3.68	2.51993
3.69	2.52125
3.7	2.52816
3.71	2.51993
3.72	2.50677
3.73	2.53638
3.74	2.49427
3.75	2.52914
3.76	2.52355
3.77	2.52421
3.78	2.51138
3.79	2.51598
3.8	2.46533
3.81	2.4946
3.82	2.4594
3.83	2.47059
3.84	2.46302
3.85	2.50348
3.86	2.50052
3.87	2.5048
3.88	2.51664
3.89	2.51302
3.9	2.50217
3.91	2.49362
3.92	2.53079
3.93	2.49691
3.94	2.51796
3.95	2.52421
3.96	2.50151
3.97	2.49263
3.98	2.49526
3.99	2.49493
4	2.51105
4.01	2.51237
4.02	2.53605
4.03	2.51039
4.04	2.51434
4.05	2.49427
4.06	2.53474
4.07	2.51335
4.08	2.4946
4.09	2.49954
4.1	2.52026
4.11	2.54559
4.12	2.52717
4.13	2.46927
4.14	2.50612
4.15	2.50809
4.16	2.48704
4.17	2.4923
4.18	2.48572
4.19	2.51072
4.2	2.49625
4.21	2.50381
4.22	2.52322
4.23	2.52947
4.24	2.49197
4.25	2.47848
4.26	2.49921
4.27	2.49987
4.28	2.50513
4.29	2.53112
4.3	2.52223
4.31	2.49526
4.32	2.4775
4.33	2.515
4.34	2.51401
4.35	2.50612
4.36	2.52881
4.37	2.49197
4.38	2.47059
4.39	2.49131
4.4	2.50184
4.41	2.4719
4.42	2.47815
4.43	2.50776
4.44	2.52881
4.45	2.51335
4.46	2.53309
4.47	2.54493
4.48	2.48539
4.49	2.50184
4.5	2.50908
4.51	2.50118
4.52	2.52585
4.53	2.50283
4.54	2.50677
4.55	2.52125
4.56	2.52026
4.57	2.4923
4.58	2.50612
4.59	2.51335
4.6	2.51302
4.61	2.52454
4.62	2.49625
4.63	2.52026
4.64	2.49789
4.65	2.50579
4.66	2.51434
4.67	2.48144
4.68	2.48572
4.69	2.48144
4.7	2.47552
4.71	2.50316
4.72	2.50941
4.73	2.5252
4.74	2.51796
4.75	2.49855
4.76	2.48046
4.77	2.50842
4.78	2.48868
4.79	2.50217
4.8	2.50842
4.81	2.50283
4.82	2.50019
4.83	2.5071
4.84	2.51664
4.85	2.48835
4.86	2.51072
4.87	2.5252
4.88	2.49329
4.89	2.48112
4.9	2.5025
4.91	2.50941
4.92	2.52289
4.93	2.48671
4.94	2.47388
4.95	2.51763
4.96	2.50612
4.97	2.50019
4.98	2.49921
4.99	2.53079
5	2.55316
5.01	2.53901
5.02	2.50381
5.03	2.51006
5.04	2.51763
5.05	2.5025
5.06	2.49427
5.07	2.48605
5.08	2.48506
5.09	2.50809
5.1	2.52783
5.11	2.49526
5.12	2.48967
5.13	2.48671
5.14	2.52651
5.15	2.48671
5.16	2.49033
5.17	2.52059
5.18	2.52454
5.19	2.51598
5.2	2.53901
5.21	2.49822
5.22	2.47651
5.23	2.51105
5.24	2.51105
5.25	2.51993
5.26	2.4946
5.27	2.46598
5.28	2.50908
5.29	2.47486
5.3	2.49789
5.31	2.48671
5.32	2.50579
5.33	2.49427
5.34	2.49954
5.35	2.49394
5.36	2.49888
5.37	2.49065
5.38	2.49427
5.39	2.50677
5.4	2.46927
5.41	2.48769
5.42	2.50381
5.43	2.53309
5.44	2.51039
5.45	2.52092
5.46	2.4923
5.47	2.50513
5.48	2.49197
5.49	2.52783
5.5	2.50941
5.51	2.49164
5.52	2.49691
5.53	2.49855
5.54	2.46006
5.55	2.49033
5.56	2.47783
5.57	2.5025
5.58	2.49526
5.59	2.51204
5.6	2.50151
5.61	2.51895
5.62	2.51763
5.63	2.53112
5.64	2.51796
5.65	2.52191
5.66	2.48638
5.67	2.50085
5.68	2.47585
5.69	2.48013
5.7	2.48539
5.71	2.47092
5.72	2.49493
5.73	2.51895
5.74	2.50875
5.75	2.50217
5.76	2.49987
5.77	2.51335
5.78	2.47486
5.79	2.48835
5.8	2.51993
5.81	2.52256
5.82	2.47388
5.83	2.4798
5.84	2.51105
5.85	2.50381
5.86	2.52158
5.87	2.49789
5.88	2.52684
5.89	2.50579
5.9	2.50283
5.91	2.51171
5.92	2.47717
5.93	2.49921
5.94	2.48112
5.95	2.49954
5.96	2.52059
5.97	2.48638
5.98	2.50118
5.99	2.48112
6	2.46598
6.01	2.50052
6.02	2.48901
6.03	2.51631
6.04	2.52158
6.05	2.4946
6.06	2.47618
6.07	2.49855
6.08	2.47026
6.09	2.47914
6.1	2.49362
6.11	2.48112
6.12	2.49263
6.13	2.50019
6.14	2.48769
6.15	2.4946
6.16	2.48704
6.17	2.48177
6.18	2.4923
6.19	2.4923
6.2	2.46467
6.21	2.51171
6.22	2.51072
6.23	2.49164
6.24	2.4821
6.25	2.47651
6.26	2.48868
6.27	2.50052
6.28	2.49592
6.29	2.50283
6.3	2.49065
6.31	2.47552
6.32	2.46204
6.33	2.47421
6.34	2.52125
6.35	2.50447
6.36	2.46533
6.37	2.46138
6.38	2.46368
6.39	2.48013
6.4	2.49427
6.41	2.49493
6.42	2.48901
6.43	2.49
6.44	2.45743
6.45	2.4673
6.46	2.47947
6.47	2.47783
6.48	2.49723
6.49	2.50184
6.5	2.48309
6.51	2.48967
6.52	2.48144
6.53	2.48276
6.54	2.48144
6.55	2.48539
6.56	2.47618
6.57	2.51072
6.58	2.50579
6.59	2.49855
6.6	2.48506
6.61	2.50908
6.62	2.49921
6.63	2.51467
6.64	2.49329
6.65	2.50513
6.66	2.50513
6.67	2.4923
6.68	2.45184
6.69	2.49394
6.7	2.51138
6.71	2.47322
6.72	2.4571
6.73	2.49723
6.74	2.46204
6.75	2.48704
6.76	2.49625
6.77	2.46533
6.78	2.49098
6.79	2.50348
6.8	2.49033
6.81	2.49625
6.82	2.48572
6.83	2.48638
6.84	2.50316
6.85	2.50118
6.86	2.49131
6.87	2.48079
6.88	2.47289
6.89	2.47651
6.9	2.55678
6.91	2.50644
6.92	2.48704
6.93	2.45875
6.94	2.5127
6.95	2.51335
6.96	2.46204
6.97	2.47486
6.98	2.47454
6.99	2.46236
7	2.49658
7.01	2.48934
7.02	2.48276
7.03	2.48506
7.04	2.5048
7.05	2.4775
7.06	2.49987
7.07	2.50381
7.08	2.49855
7.09	2.48473
7.1	2.49888
7.11	2.52487
7.12	2.50283
7.13	2.51006
7.14	2.49954
7.15	2.49625
7.16	2.51368
7.17	2.50283
7.18	2.47256
7.19	2.45513
7.2	2.48769
7.21	2.49493
7.22	2.4798
7.23	2.47947
7.24	2.51763
7.25	2.47881
7.26	2.47651
7.27	2.49756
7.28	2.49954
7.29	2.49296
7.3	2.48802
7.31	2.52092
7.32	2.53539
7.33	2.51401
7.34	2.48572
7.35	2.49658
7.36	2.4798
7.37	2.48375
7.38	2.48342
7.39	2.51006
7.4	2.50381
7.41	2.49
7.42	2.50085
7.43	2.50579
7.44	2.49625
7.45	2.49822
7.46	2.49987
7.47	2.49197
7.48	2.48408
7.49	2.5025
7.5	2.49855
7.51	2.48901
7.52	2.48342
7.53	2.49065
7.54	2.45973
7.55	2.49296
7.56	2.52388
7.57	2.49033
7.58	2.50809
7.59	2.50513
7.6	2.49789
7.61	2.48473
7.62	2.51533
7.63	2.50184
7.64	2.50677
7.65	2.47256
7.66	2.44394
7.67	2.49197
7.68	2.49131
7.69	2.47914
7.7	2.52289
7.71	2.51763
7.72	2.51467
7.73	2.50414
7.74	2.48967
7.75	2.50644
7.76	2.49723
7.77	2.48769
7.78	2.48835
7.79	2.49065
7.8	2.49954
7.81	2.52191
7.82	2.47125
7.83	2.49065
7.84	2.50743
7.85	2.50283
7.86	2.51533
7.87	2.46861
7.88	2.48737
7.89	2.48605
7.9	2.51335
7.91	2.49526
7.92	2.45842
7.93	2.4821
7.94	2.46072
7.95	2.47717
7.96	2.50151
7.97	2.47815
7.98	2.51829
7.99	2.4775
8	2.48309
8.01	2.49954
8.02	2.49954
8.03	2.51072
8.04	2.53177
8.05	2.52717
8.06	2.4923
8.07	2.47421
8.08	2.48671
8.09	2.49691
8.1	2.46598
8.11	2.50875
8.12	2.50316
8.13	2.49427
8.14	2.49329
8.15	2.47618
8.16	2.50579
8.17	2.50381
8.18	2.48079
8.19	2.48309
8.2	2.49658
8.21	2.48408
8.22	2.49789
8.23	2.51335
8.24	2.48835
8.25	2.49691
8.26	2.50973
8.27	2.5127
8.28	2.49296
8.29	2.47322
8.3	2.51434
8.31	2.49526
8.32	2.50447
8.33	2.49394
8.34	2.46302
8.35	2.48868
8.36	2.4923
8.37	2.48342
8.38	2.46565
8.39	2.4719
8.4	2.47289
8.41	2.50546
8.42	2.47092
8.43	2.48769
8.44	2.465
8.45	2.46796
8.46	2.49263
8.47	2.47848
8.48	2.48046
8.49	2.46401
8.5	2.49394
8.51	2.47881
8.52	2.46796
8.53	2.47519
8.54	2.50085
8.55	2.47651
8.56	2.49789
8.57	2.49625
8.58	2.47783
8.59	2.48605
8.6	2.48901
8.61	2.48473
8.62	2.54789
8.63	2.4946
8.64	2.49362
8.65	2.49
8.66	2.50283
8.67	2.47651
8.68	2.48375
8.69	2.49559
8.7	2.51467
8.71	2.4946
8.72	2.50447
8.73	2.49756
8.74	2.4696
8.75	2.45907
8.76	2.48375
8.77	2.46105
8.78	2.4594
8.79	2.47717
8.8	2.49197
8.81	2.50184
8.82	2.49098
8.83	2.45546
8.84	2.47914
8.85	2.46598
8.86	2.46565
8.87	2.46401
8.88	2.50151
8.89	2.47914
8.9	2.47092
8.91	2.51927
8.92	2.51105
8.93	2.51993
8.94	2.47815
8.95	2.45907
8.96	2.49131
8.97	2.50151
8.98	2.48177
8.99	2.49855
9	2.47092
9.01	2.46894
9.02	2.50283
9.03	2.48901
9.04	2.48539
9.05	2.5025
9.06	2.51566
9.07	2.47914
9.08	2.45809
9.09	2.48177
9.1	2.48901
9.11	2.47684
9.12	2.47947
9.13	2.50316
9.14	2.49691
9.15	2.48901
9.16	2.47322
9.17	2.49394
9.18	2.48112
9.19	2.45973
9.2	2.46763
9.21	2.46829
9.22	2.51138
9.23	2.47158
9.24	2.44855
9.25	2.52256
9.26	2.52783
9.27	2.49592
9.28	2.47552
9.29	2.4844
9.3	2.48013
9.31	2.4571
9.32	2.4423
9.33	2.49131
9.34	2.50316
9.35	2.47223
9.36	2.49756
9.37	2.52816
9.38	2.44526
9.39	2.45217
9.4	2.47454
9.41	2.49197
9.42	2.46565
9.43	2.44065
9.44	2.50184
9.45	2.50973
9.46	2.47454
9.47	2.48013
9.48	2.46927
9.49	2.47848
9.5	2.48802
9.51	2.45118
9.52	2.45019
9.53	2.45513
9.54	2.48375
9.55	2.45743
9.56	2.49329
9.57	2.51401
9.58	2.52487
9.59	2.50283
9.6	2.48342
9.61	2.48572
9.62	2.49756
9.63	2.49559
9.64	2.48835
9.65	2.50184
9.66	2.49526
9.67	2.48243
9.68	2.4719
9.69	2.5071
9.7	2.48112
9.71	2.46894
9.72	2.47684
9.73	2.48802
9.74	2.48506
9.75	2.49
9.76	2.50184
9.77	2.48375
9.78	2.47783
9.79	2.49723
9.8	2.47914
9.81	2.49493
9.82	2.465
9.83	2.47256
9.84	2.46664
9.85	2.4821
9.86	2.50875
9.87	2.47717
9.88	2.4798
9.89	2.49723
9.9	2.50316
9.91	2.47881
9.92	2.48506
9.93	2.49427
9.94	2.49296
9.95	2.48112
9.96	2.49987
9.97	2.46894
9.98	2.48967
9.99	2.49987
10	2.46105
10.01	2.45842
10.02	2.50381
10.03	2.48539
10.04	2.4673
10.05	2.51006
10.06	2.49493
10.07	2.49592
10.08	2.4946
10.09	2.49164
10.1	2.46598
10.11	2.43967
10.12	2.45611
10.13	2.49987
10.14	2.48704
10.15	2.49888
10.16	2.48704
10.17	2.51039
10.18	2.48408
10.19	2.48276
10.2	2.49131
10.21	2.46664
10.22	2.4798
10.23	2.46697
10.24	2.49723
10.25	2.48276
10.26	2.50381
10.27	2.5048
10.28	2.49197
10.29	2.50579
10.3	2.48572
10.31	2.47618
10.32	2.47783
10.33	2.49559
10.34	2.48276
10.35	2.4548
10.36	2.46204
10.37	2.46565
10.38	2.48243
10.39	2.48868
10.4	2.49131
10.41	2.4673
10.42	2.4775
10.43	2.50118
10.44	2.51237
10.45	2.50941
10.46	2.49427
10.47	2.4798
10.48	2.49164
10.49	2.4696
10.5	2.48506
10.51	2.47783
10.52	2.47026
10.53	2.46434
10.54	2.49987
10.55	2.47684
10.56	2.50085
10.57	2.48671
10.58	2.49559
10.59	2.48605
10.6	2.46401
10.61	2.48934
10.62	2.47322
10.63	2.48408
10.64	2.50118
10.65	2.49789
10.66	2.44954
10.67	2.465
10.68	2.47322
10.69	2.46138
10.7	2.46204
10.71	2.47881
10.72	2.48408
10.73	2.44526
10.74	2.49921
10.75	2.48671
10.76	2.47618
10.77	2.45677
10.78	2.4775
10.79	2.48572
10.8	2.47026
10.81	2.4821
10.82	2.48737
10.83	2.46039
10.84	2.48243
10.85	2.47421
10.86	2.49131
10.87	2.47585
10.88	2.48046
10.89	2.45743
10.9	2.45875
10.91	2.48375
10.92	2.4798
10.93	2.45447
10.94	2.48868
10.95	2.44888
10.96	2.46269
10.97	2.47223
10.98	2.4923
10.99	2.48704
11	2.47618
11.01	2.4923
11.02	2.48243
11.03	2.4798
11.04	2.46598
11.05	2.49065
11.06	2.47783
11.07	2.46335
11.08	2.46368
11.09	2.48046
11.1	2.47651
11.11	2.51434
11.12	2.47026
11.13	2.46335
11.14	2.47618
11.15	2.4594
11.16	2.46861
11.17	2.46631
11.18	2.48177
11.19	2.49921
11.2	2.48309
11.21	2.49822
11.22	2.50151
11.23	2.48605
11.24	2.47519
11.25	2.48967
11.26	2.47125
11.27	2.47256
11.28	2.48408
11.29	2.46072
11.3	2.4696
11.31	2.49296
11.32	2.47486
11.33	2.48967
11.34	2.48342
11.35	2.46467
11.36	2.48737
11.37	2.46533
11.38	2.4344
11.39	2.44986
11.4	2.4719
11.41	2.48671
11.42	2.48901
11.43	2.49987
11.44	2.47618
11.45	2.47322
11.46	2.48802
11.47	2.45579
11.48	2.50743
11.49	2.49098
11.5	2.47651
11.51	2.50513
11.52	2.4946
11.53	2.48342
11.54	2.45414
11.55	2.47454
11.56	2.46631
11.57	2.48539
11.58	2.48243
11.59	2.46533
11.6	2.46829
11.61	2.49394
11.62	2.49691
11.63	2.47618
11.64	2.49493
11.65	2.51862
11.66	2.50513
11.67	2.4946
11.68	2.45776
11.69	2.4923
11.7	2.49329
11.71	2.44855
11.72	2.465
11.73	2.48967
11.74	2.4719
11.75	2.48572
11.76	2.44065
11.77	2.47289
11.78	2.44789
11.79	2.44921
11.8	2.48605
11.81	2.50052
11.82	2.48079
11.83	2.48013
11.84	2.45447
11.85	2.47355
11.86	2.4844
11.87	2.45019
11.88	2.50381
11.89	2.47454
11.9	2.48144
11.91	2.45282
11.92	2.44361
11.93	2.45842
11.94	2.45118
11.95	2.47059
11.96	2.4673
11.97	2.49921
11.98	2.47881
11.99	2.46927
12	2.47026
12.01	2.47585
12.02	2.45579
12.03	2.45151
12.04	2.48177
12.05	2.47059
12.06	2.46302
12.07	2.48506
12.08	2.46796
12.09	2.46993
12.1	2.51467
12.11	2.44954
12.12	2.47322
12.13	2.45875
12.14	2.46533
12.15	2.47947
12.16	2.47092
12.17	2.47092
12.18	2.45579
12.19	2.47223
12.2	2.49329
12.21	2.47881
12.22	2.48506
12.23	2.47158
12.24	2.46796
12.25	2.48276
12.26	2.50019
12.27	2.48671
12.28	2.47881
12.29	2.49098
12.3	2.48079
12.31	2.48046
12.32	2.51105
12.33	2.47125
12.34	2.46861
12.35	2.47519
12.36	2.4719
12.37	2.45151
12.38	2.47618
12.39	2.48309
12.4	2.4719
12.41	2.46598
12.42	2.47289
12.43	2.4844
12.44	2.49296
12.45	2.48276
12.46	2.48506
12.47	2.49
12.48	2.48539
12.49	2.49
12.5	2.47783
12.51	2.47355
12.52	2.48671
12.53	2.46697
12.54	2.47256
12.55	2.47585
12.56	2.49362
12.57	2.47881
12.58	2.48802
12.59	2.49658
12.6	2.47388
12.61	2.47684
12.62	2.47651
12.63	2.47815
12.64	2.48835
12.65	2.45315
12.66	2.45348
12.67	2.48375
12.68	2.48375
12.69	2.47848
12.7	2.47914
12.71	2.46829
12.72	2.47223
12.73	2.50612
12.74	2.47947
12.75	2.46927
12.76	2.45875
12.77	2.46861
12.78	2.46368
12.79	2.465
12.8	2.46927
12.81	2.45776
12.82	2.49362
12.83	2.50381
12.84	2.47848
12.85	2.47585
12.86	2.47552
12.87	2.47454
12.88	2.48375
12.89	2.48835
12.9	2.49033
12.91	2.46006
12.92	2.47618
12.93	2.48112
12.94	2.5127
12.95	2.47618
12.96	2.47618
12.97	2.47815
12.98	2.47684
12.99	2.48737
13	2.47256
13.01	2.48309
13.02	2.47684
13.03	2.46533
13.04	2.4798
13.05	2.48737
13.06	2.47486
13.07	2.46664
13.08	2.44164
13.09	2.45907
13.1	2.48506
13.11	2.48605
13.12	2.4673
13.13	2.46401
13.14	2.49065
13.15	2.48737
13.16	2.49065
13.17	2.4946
13.18	2.46993
13.19	2.43407
13.2	2.45579
13.21	2.44822
13.22	2.45217
13.23	2.47947
13.24	2.47223
13.25	2.46533
13.26	2.43177
13.27	2.45579
13.28	2.47158
13.29	2.48112
13.3	2.465
13.31	2.44888
13.32	2.45085
13.33	2.44657
13.34	2.47651
13.35	2.46631
13.36	2.46039
13.37	2.48342
13.38	2.44263
13.39	2.47256
13.4	2.50151
13.41	2.46565
13.42	2.49131
13.43	2.48802
13.44	2.46335
13.45	2.46105
13.46	2.4423
13.47	2.46467
13.48	2.48309
13.49	2.46368
13.5	2.47125
13.51	2.50316
13.52	2.47552
13.53	2.47486
13.54	2.48079
13.55	2.45513
13.56	2.49362
13.57	2.43144
13.58	2.46927
13.59	2.48473
13.6	2.47585
13.61	2.44657
13.62	2.45842
13.63	2.47783
13.64	2.48046
13.65	2.41927
13.66	2.4594
13.67	2.45776
13.68	2.45677
13.69	2.44296
13.7	2.4696
13.71	2.44296
13.72	2.47158
13.73	2.48737
13.74	2.48013
13.75	2.47355
13.76	2.51763
13.77	2.47651
13.78	2.45019
13.79	2.49
13.8	2.46368
13.81	2.47256
13.82	2.47519
13.83	2.44625
13.84	2.46467
13.85	2.47026
13.86	2.46072
13.87	2.47552
13.88	2.47914
13.89	2.47454
13.9	2.47322
13.91	2.48309
13.92	2.49394
13.93	2.49065
13.94	2.49427
13.95	2.46598
13.96	2.465
13.97	2.47651
13.98	2.47322
13.99	2.44065
14	2.44361
14.01	2.47092
14.02	2.46829
14.03	2.47881
14.04	2.48309
14.05	2.47947
14.06	2.48835
14.07	2.47848
14.08	2.45907
14.09	2.48539
14.1	2.44493
14.11	2.47684
14.12	2.44921
14.13	2.46269
14.14	2.45348
14.15	2.4344
14.16	2.48737
14.17	2.46565
14.18	2.47618
14.19	2.4696
14.2	2.48473
14.21	2.48835
14.22	2.51664
14.23	2.48769
14.24	2.49723
14.25	2.45052
14.26	2.48572
14.27	2.47125
14.28	2.46302
14.29	2.49723
14.3	2.44394
14.31	2.46829
14.32	2.46368
14.33	2.44296
14.34	2.48605
14.35	2.47881
14.36	2.48309
14.37	2.46927
14.38	2.45085
14.39	2.48605
14.4	2.4821
14.41	2.47059
14.42	2.46565
14.43	2.48177
14.44	2.45842
14.45	2.43473
14.46	2.46927
14.47	2.45315
14.48	2.49065
14.49	2.48046
14.5	2.47815
14.51	2.44328
14.52	2.44328
14.53	2.45052
14.54	2.45579
14.55	2.47717
14.56	2.47059
14.57	2.48506
14.58	2.47717
14.59	2.49723
14.6	2.51796
14.61	2.47355
14.62	2.44296
14.63	2.45875
14.64	2.46993
14.65	2.46335
14.66	2.46269
14.67	2.44986
14.68	2.47454
14.69	2.45677
14.7	2.44822
14.71	2.46927
14.72	2.47158
14.73	2.4798
14.74	2.48769
14.75	2.45184
14.76	2.46796
14.77	2.46861
14.78	2.4525
14.79	2.46861
14.8	2.45052
14.81	2.46697
14.82	2.48934
14.83	2.47519
14.84	2.47585
14.85	2.45842
14.86	2.46697
14.87	2.48539
14.88	2.44921
14.89	2.46105
14.9	2.48704
14.91	2.47223
14.92	2.46598
14.93	2.49658
14.94	2.45776
14.95	2.45184
14.96	2.46269
14.97	2.47059
14.98	2.4798
14.99	2.48112
15	2.44361
15.01	2.45973
15.02	2.4798
15.03	2.48572
15.04	2.47585
15.05	2.46631
15.06	2.465
15.07	2.42717
15.08	2.47454
15.09	2.49723
15.1	2.44657
15.11	2.48243
15.12	2.46861
15.13	2.48144
15.14	2.47783
15.15	2.49098
15.16	2.48802
15.17	2.4673
15.18	2.48539
15.19	2.46467
15.2	2.47026
15.21	2.47717
15.22	2.4571
15.23	2.47881
15.24	2.44657
15.25	2.46861
15.26	2.47388
15.27	2.50381
15.28	2.48342
15.29	2.49033
15.3	2.46829
15.31	2.4821
15.32	2.49427
15.33	2.48309
15.34	2.46796
15.35	2.49296
15.36	2.47125
15.37	2.48539
15.38	2.46894
15.39	2.47421
15.4	2.45348
15.41	2.4696
15.42	2.45184
15.43	2.49592
15.44	2.50743
15.45	2.48079
15.46	2.49065
15.47	2.46664
15.48	2.45118
15.49	2.47355
15.5	2.49625
15.51	2.49756
15.52	2.45842
15.53	2.4548
15.54	2.47684
15.55	2.4719
15.56	2.48802
15.57	2.47684
15.58	2.47519
15.59	2.4798
15.6	2.4719
15.61	2.46796
15.62	2.48769
15.63	2.49855
15.64	2.44723
15.65	2.46467
15.66	2.49098
15.67	2.44855
15.68	2.46993
15.69	2.44
15.7	2.4594
15.71	2.4571
15.72	2.4719
15.73	2.49263
15.74	2.45184
15.75	2.47322
15.76	2.45447
15.77	2.47355
15.78	2.44723
15.79	2.45381
15.8	2.50316
15.81	2.48243
15.82	2.4798
15.83	2.46039
15.84	2.47815
15.85	2.48046
15.86	2.48737
15.87	2.465
15.88	2.47618
15.89	2.4594
15.9	2.45217
15.91	2.45842
15.92	2.45381
15.93	2.49164
15.94	2.48177
15.95	2.47355
15.96	2.46467
15.97	2.48671
15.98	2.49691
15.99	2.46401
16	2.45842
16.01	2.45579
16.02	2.46302
16.03	2.45644
16.04	2.47059
16.05	2.47125
16.06	2.46829
16.07	2.49329
16.08	2.50908
16.09	2.48638
16.1	2.44592
16.11	2.45118
16.12	2.46171
16.13	2.47026
16.14	2.48013
16.15	2.4821
16.16	2.47486
16.17	2.46664
16.18	2.45776
16.19	2.46434
16.2	2.46269
16.21	2.48177
16.22	2.47026
16.23	2.4594
16.24	2.49296
16.25	2.46993
16.26	2.47486
16.27	2.47848
16.28	2.48967
16.29	2.4548
16.3	2.44559
16.31	2.48539
16.32	2.45776
16.33	2.46598
16.34	2.48737
16.35	2.44197
16.36	2.46796
16.37	2.4673
16.38	2.45019
16.39	2.41828
16.4	2.4469
16.41	2.46993
16.42	2.47717
16.43	2.46565
16.44	2.46598
16.45	2.46269
16.46	2.48112
16.47	2.48934
16.48	2.46533
16.49	2.45546
16.5	2.47717
16.51	2.49987
16.52	2.51335
16.53	2.48638
16.54	2.47256
16.55	2.46269
16.56	2.48079
16.57	2.47421
16.58	2.45743
16.59	2.45315
16.6	2.47881
16.61	2.47684
16.62	2.46861
16.63	2.48605
16.64	2.44131
16.65	2.45842
16.66	2.4525
16.67	2.47914
16.68	2.46006
16.69	2.44954
16.7	2.46598
16.71	2.45184
16.72	2.4844
16.73	2.47388
16.74	2.43769
16.75	2.4196
16.76	2.4548
16.77	2.47355
16.78	2.45052
16.79	2.49329
16.8	2.47322
16.81	2.49164
16.82	2.47651
16.83	2.47322
16.84	2.47388
16.85	2.49954
16.86	2.46664
16.87	2.4571
16.88	2.46006
16.89	2.46598
16.9	2.46763
16.91	2.46401
16.92	2.47881
16.93	2.4673
16.94	2.48046
16.95	2.47783
16.96	2.45447
16.97	2.45151
16.98	2.44098
16.99	2.47585
17	2.48901
17.01	2.45513
17.02	2.47651
17.03	2.44263
17.04	2.44065
17.05	2.46006
17.06	2.49362
17.07	2.48309
17.08	2.47585
17.09	2.46467
17.1	2.45809
17.11	2.45282
17.12	2.49723
17.13	2.4798
17.14	2.4673
17.15	2.47519
17.16	2.47684
17.17	2.47815
17.18	2.45085
17.19	2.48243
17.2	2.4673
17.21	2.47092
17.22	2.47815
17.23	2.45644
17.24	2.45381
17.25	2.48309
17.26	2.46269
17.27	2.44526
17.28	2.47158
17.29	2.48868
17.3	2.43967
17.31	2.43967
17.32	2.48539
17.33	2.4719
17.34	2.44789
17.35	2.46236
17.36	2.44888
17.37	2.46335
17.38	2.45414
17.39	2.43835
17.4	2.47092
17.41	2.46039
17.42	2.48769
17.43	2.47947
17.44	2.47519
17.45	2.48276
17.46	2.43111
17.47	2.45579
17.48	2.47092
17.49	2.47388
17.5	2.45085
17.51	2.46565
17.52	2.49164
17.53	2.45513
17.54	2.45546
17.55	2.48276
17.56	2.47519
17.57	2.47585
17.58	2.45414
17.59	2.44756
17.6	2.46105
17.61	2.43539
17.62	2.43407
17.63	2.44394
17.64	2.45085
17.65	2.46763
17.66	2.45348
17.67	2.46006
17.68	2.47651
17.69	2.46335
17.7	2.47223
17.71	2.43605
17.72	2.45907
17.73	2.49131
17.74	2.48046
17.75	2.48473
17.76	2.47552
17.77	2.47388
17.78	2.47454
17.79	2.47223
17.8	2.50612
17.81	2.45151
17.82	2.47059
17.83	2.46565
17.84	2.4594
17.85	2.45513
17.86	2.48046
17.87	2.49197
17.88	2.47289
17.89	2.45151
17.9	2.47256
17.91	2.45282
17.92	2.45348
17.93	2.44954
17.94	2.46697
17.95	2.46138
17.96	2.47355
17.97	2.49987
17.98	2.4571
17.99	2.50019
18	2.46993
18.01	2.46467
18.02	2.45414
18.03	2.50019
18.04	2.47486
18.05	2.46335
18.06	2.47092
18.07	2.49263
18.08	2.46368
18.09	2.45315
18.1	2.4719
18.11	2.46006
18.12	2.43605
18.13	2.44657
18.14	2.47289
18.15	2.45447
18.16	2.46236
18.17	2.46993
18.18	2.46434
18.19	2.44888
18.2	2.47355
18.21	2.47486
18.22	2.48572
18.23	2.46105
18.24	2.47585
18.25	2.44723
18.26	2.44296
18.27	2.44888
18.28	2.45875
18.29	2.42618
18.3	2.46894
18.31	2.48309
18.32	2.47026
18.33	2.48375
18.34	2.47355
18.35	2.47454
18.36	2.4775
18.37	2.44657
18.38	2.45414
18.39	2.47947
18.4	2.45315
18.41	2.47684
18.42	2.47322
18.43	2.46269
18.44	2.43703
18.45	2.46631
18.46	2.4344
18.47	2.46829
18.48	2.47125
18.49	2.44427
18.5	2.45776
18.51	2.44657
18.52	2.47651
18.53	2.48144
18.54	2.46467
18.55	2.45677
18.56	2.44526
18.57	2.48177
18.58	2.45907
18.59	2.4571
18.6	2.45973
18.61	2.46894
18.62	2.45381
18.63	2.47289
18.64	2.47783
18.65	2.47421
18.66	2.46368
18.67	2.44822
18.68	2.45052
18.69	2.4696
18.7	2.47519
18.71	2.47059
18.72	2.47684
18.73	2.46269
18.74	2.47651
18.75	2.45579
18.76	2.4673
18.77	2.46565
18.78	2.47355
18.79	2.50118
18.8	2.47388
18.81	2.44954
18.82	2.47125
18.83	2.49625
18.84	2.47158
18.85	2.4775
18.86	2.47585
18.87	2.44592
18.88	2.43407
18.89	2.43769
18.9	2.4696
18.91	2.46927
18.92	2.46236
18.93	2.4525
18.94	2.47125
18.95	2.45611
18.96	2.48408
18.97	2.48605
18.98	2.47815
18.99	2.48769
19	2.47454
19.01	2.44954
19.02	2.45907
19.03	2.45184
19.04	2.4594
19.05	2.4798
19.06	2.43473
19.07	2.45151
19.08	2.4696
19.09	2.48112
19.1	2.48868
19.11	2.47717
19.12	2.45809
19.13	2.44592
19.14	2.4571
19.15	2.48408
19.16	2.47026
19.17	2.465
19.18	2.45973
19.19	2.46993
19.2	2.4469
19.21	2.465
19.22	2.47486
19.23	2.44559
19.24	2.47585
19.25	2.45447
19.26	2.44098
19.27	2.46829
19.28	2.45579
19.29	2.46204
19.3	2.45118
19.31	2.45282
19.32	2.46631
19.33	2.44789
19.34	2.44954
19.35	2.45907
19.36	2.47881
19.37	2.45776
19.38	2.49065
19.39	2.49197
19.4	2.48079
19.41	2.45151
19.42	2.46269
19.43	2.43868
19.44	2.45546
19.45	2.45776
19.46	2.46138
19.47	2.45875
19.48	2.45217
19.49	2.44625
19.5	2.43605
19.51	2.45842
19.52	2.46236
19.53	2.4775
19.54	2.49263
19.55	2.46138
19.56	2.45579
19.57	2.47519
19.58	2.46894
19.59	2.49197
19.6	2.49296
19.61	2.45513
19.62	2.44328
19.63	2.44361
19.64	2.45611
19.65	2.45907
19.66	2.44065
19.67	2.45019
19.68	2.45118
19.69	2.46072
19.7	2.4469
19.71	2.42717
19.72	2.46993
19.73	2.47947
19.74	2.44822
19.75	2.46039
19.76	2.49362
19.77	2.46006
19.78	2.43078
19.79	2.45743
19.8	2.43013
19.81	2.45776
19.82	2.47684
19.83	2.47322
19.84	2.4423
19.85	2.46763
19.86	2.46697
19.87	2.48079
19.88	2.46006
19.89	2.46302
19.9	2.43572
19.91	2.46796
19.92	2.46236
19.93	2.44131
19.94	2.45118
19.95	2.44394
19.96	2.46565
19.97	2.48112
19.98	2.44559
19.99	2.45282
20	2.45611
20.01	2.46927
20.02	2.46072
20.03	2.45907
20.04	2.48046
20.05	2.46861
20.06	2.45151
20.07	2.45118
20.08	2.45184
20.09	2.42289
20.1	2.4548
20.11	2.46138
20.12	2.46861
20.13	2.47783
20.14	2.44756
20.15	2.44921
20.16	2.48506
20.17	2.4798
20.18	2.48177
20.19	2.48769
20.2	2.45743
20.21	2.44921
20.22	2.46993
20.23	2.45973
20.24	2.44
20.25	2.47223
20.26	2.43539
20.27	2.44789
20.28	2.46861
20.29	2.47125
20.3	2.46927
20.31	2.46763
20.32	2.47092
20.33	2.47158
20.34	2.47552
20.35	2.45907
20.36	2.44921
20.37	2.44888
20.38	2.48013
20.39	2.46302
20.4	2.46138
20.41	2.45677
20.42	2.46796
20.43	2.46335
20.44	2.47158
20.45	2.45677
20.46	2.45019
20.47	2.47059
20.48	2.47289
20.49	2.4798
20.5	2.44296
20.51	2.44493
20.52	2.45052
20.53	2.42947
20.54	2.4594
20.55	2.48506
20.56	2.47059
20.57	2.48901
20.58	2.46434
20.59	2.47388
20.6	2.47256
20.61	2.43802
20.62	2.43736
20.63	2.4423
20.64	2.45151
20.65	2.46565
20.66	2.48671
20.67	2.44559
20.68	2.44592
20.69	2.4821
20.7	2.46236
20.71	2.45842
20.72	2.46598
20.73	2.47388
20.74	2.47289
20.75	2.47815
20.76	2.48868
20.77	2.44065
20.78	2.45513
20.79	2.4696
20.8	2.43769
20.81	2.45743
20.82	2.45907
20.83	2.43506
20.84	2.45644
20.85	2.45085
20.86	2.47552
20.87	2.46993
20.88	2.46072
20.89	2.45118
20.9	2.45118
20.91	2.46697
20.92	2.46927
20.93	2.47059
20.94	2.44723
20.95	2.4446
20.96	2.45776
20.97	2.46467
20.98	2.49691
20.99	2.48967
21	2.45611
21.01	2.45973
21.02	2.45743
21.03	2.46664
21.04	2.44592
21.05	2.44723
21.06	2.43835
21.07	2.465
21.08	2.4775
21.09	2.45381
21.1	2.47421
21.11	2.46204
21.12	2.43901
21.13	2.45217
21.14	2.44954
21.15	2.48013
21.16	2.44
21.17	2.43407
21.18	2.43539
21.19	2.47815
21.2	2.47552
21.21	2.47717
21.22	2.45677
21.23	2.46138
21.24	2.43144
21.25	2.44559
21.26	2.44888
21.27	2.45151
21.28	2.4571
21.29	2.45315
21.3	2.45282
21.31	2.45776
21.32	2.44789
21.33	2.4446
21.34	2.43013
21.35	2.46565
21.36	2.44855
21.37	2.4525
21.38	2.46072
21.39	2.46401
21.4	2.47618
21.41	2.4673
21.42	2.44526
21.43	2.45348
21.44	2.46072
21.45	2.45644
21.46	2.45085
21.47	2.46829
21.48	2.46829
21.49	2.4821
21.5	2.4673
21.51	2.4548
21.52	2.46171
21.53	2.48144
21.54	2.46335
21.55	2.45743
21.56	2.47585
21.57	2.44657
21.58	2.44657
21.59	2.46368
21.6	2.45644
21.61	2.46598
21.62	2.44657
21.63	2.4321
21.64	2.48901
21.65	2.48112
21.66	2.46829
21.67	2.44197
21.68	2.45217
21.69	2.44789
21.7	2.44888
21.71	2.47717
21.72	2.45217
21.73	2.46829
21.74	2.43736
21.75	2.45579
21.76	2.47125
21.77	2.45611
21.78	2.44493
21.79	2.4344
21.8	2.4469
21.81	2.48046
21.82	2.48243
21.83	2.46434
21.84	2.47256
21.85	2.47158
21.86	2.44888
21.87	2.4673
21.88	2.47158
21.89	2.48737
21.9	2.46105
21.91	2.45315
21.92	2.44592
21.93	2.4844
21.94	2.46467
21.95	2.4673
21.96	2.45776
21.97	2.48013
21.98	2.51072
21.99	2.47289
22	2.45052
22.01	2.46072
22.02	2.45973
22.03	2.4844
22.04	2.47223
22.05	2.46434
22.06	2.48638
22.07	2.43868
22.08	2.44592
22.09	2.46598
22.1	2.4548
22.11	2.44921
22.12	2.44263
22.13	2.4446
22.14	2.47552
22.15	2.43901
22.16	2.45973
22.17	2.46533
22.18	2.48539
22.19	2.45973
22.2	2.46434
22.21	2.46236
22.22	2.45348
22.23	2.45513
22.24	2.48802
22.25	2.43703
22.26	2.44328
22.27	2.44954
22.28	2.44394
22.29	2.4798
22.3	2.47125
22.31	2.46467
22.32	2.47026
22.33	2.46335
22.34	2.46829
22.35	2.44361
22.36	2.47651
22.37	2.48375
22.38	2.4844
22.39	2.45381
22.4	2.48375
22.41	2.44032
22.42	2.4423
22.43	2.46664
22.44	2.43539
22.45	2.44526
22.46	2.44592
22.47	2.43572
22.48	2.46138
22.49	2.48737
22.5	2.43046
22.51	2.42355
22.52	2.48112
22.53	2.46236
22.54	2.4719
22.55	2.48802
22.56	2.45579
22.57	2.46269
22.58	2.45743
22.59	2.47092
22.6	2.45842
22.61	2.46105
22.62	2.44263
22.63	2.43802
22.64	2.46039
22.65	2.47585
22.66	2.49197
22.67	2.46467
22.68	2.46796
22.69	2.47618
22.7	2.48638
22.71	2.47158
22.72	2.46105
22.73	2.4673
22.74	2.45513
22.75	2.46697
22.76	2.47486
22.77	2.4696
22.78	2.50941
22.79	2.50019
22.8	2.43572
22.81	2.45809
22.82	2.44493
22.83	2.4696
22.84	2.45348
22.85	2.44526
22.86	2.45282
22.87	2.46467
22.88	2.45447
22.89	2.45513
22.9	2.43736
22.91	2.45743
22.92	2.45907
22.93	2.43769
22.94	2.45842
22.95	2.44328
22.96	2.43769
22.97	2.46631
22.98	2.47388
22.99	2.45546
23	2.4594
23.01	2.43539
23.02	2.4321
23.03	2.45052
23.04	2.42289
23.05	2.45151
23.06	2.44822
23.07	2.46006
23.08	2.45118
23.09	2.45315
23.1	2.45809
23.11	2.45184
23.12	2.45809
23.13	2.45875
23.14	2.44427
23.15	2.46269
23.16	2.46697
23.17	2.46368
23.18	2.44592
23.19	2.47158
23.2	2.47125
23.21	2.45513
23.22	2.44822
23.23	2.47059
23.24	2.46565
23.25	2.45282
23.26	2.45875
23.27	2.46006
23.28	2.46006
23.29	2.45776
23.3	2.45414
23.31	2.46829
23.32	2.44361
23.33	2.44427
23.34	2.45611
23.35	2.45579
23.36	2.45184
23.37	2.46533
23.38	2.46236
23.39	2.44855
23.4	2.44888
23.41	2.4696
23.42	2.45546
23.43	2.44592
23.44	2.45052
23.45	2.45907
23.46	2.45907
23.47	2.44625
23.48	2.47815
23.49	2.45842
23.5	2.45315
23.51	2.4594
23.52	2.46861
23.53	2.45677
23.54	2.45809
23.55	2.47421
23.56	2.44559
23.57	2.46269
23.58	2.49394
23.59	2.46006
23.6	2.45579
23.61	2.46861
23.62	2.49559
23.63	2.46565
23.64	2.46631
23.65	2.48342
23.66	2.46829
23.67	2.44296
23.68	2.43473
23.69	2.44789
23.7	2.45381
23.71	2.44921
23.72	2.45513
23.73	2.46829
23.74	2.45677
23.75	2.44131
23.76	2.4821
23.77	2.46467
23.78	2.42651
23.79	2.44756
23.8	2.46894
23.81	2.4446
23.82	2.44592
23.83	2.4594
23.84	2.46072
23.85	2.48144
23.86	2.44954
23.87	2.46204
23.88	2.45842
23.89	2.44427
23.9	2.4571
23.91	2.45447
23.92	2.4844
23.93	2.46236
23.94	2.45217
23.95	2.46631
23.96	2.44328
23.97	2.42585
23.98	2.4298
23.99	2.46138
24	2.45809
24.01	2.46335
24.02	2.45973
24.03	2.46664
24.04	2.49427
24.05	2.45217
24.06	2.45282
24.07	2.47059
24.08	2.46072
24.09	2.41993
24.1	2.46598
24.11	2.44559
24.12	2.45842
24.13	2.45579
24.14	2.45973
24.15	2.45217
24.16	2.48408
24.17	2.47881
24.18	2.47388
24.19	2.46829
24.2	2.45513
24.21	2.45677
24.22	2.45875
24.23	2.44493
24.24	2.45447
24.25	2.47914
24.26	2.47486
24.27	2.46401
24.28	2.43736
24.29	2.45579
24.3	2.47848
24.31	2.48375
24.32	2.4821
24.33	2.4469
24.34	2.44954
24.35	2.45743
24.36	2.45282
24.37	2.42289
24.38	2.44822
24.39	2.42782
24.4	2.45019
24.41	2.45677
24.42	2.45085
24.43	2.44493
24.44	2.44921
24.45	2.43309
24.46	2.44032
24.47	2.47717
24.48	2.46138
24.49	2.4219
24.5	2.44921
24.51	2.47947
24.52	2.46269
24.53	2.48243
24.54	2.45743
24.55	2.44197
24.56	2.43736
24.57	2.45282
24.58	2.46796
24.59	2.46697
24.6	2.46401
24.61	2.47783
24.62	2.43407
24.63	2.46829
24.64	2.44032
24.65	2.46829
24.66	2.42618
24.67	2.46664
24.68	2.44394
24.69	2.46993
24.7	2.45184
24.71	2.42453
24.72	2.45085
24.73	2.51105
24.74	2.49164
24.75	2.44361
24.76	2.44657
24.77	2.43144
24.78	2.46236
24.79	2.44493
24.8	2.44986
24.81	2.4423
24.82	2.43671
24.83	2.45118
24.84	2.44625
24.85	2.46565
24.86	2.47947
24.87	2.48934
24.88	2.47486
24.89	2.4923
24.9	2.50381
24.91	2.46664
24.92	2.44098
24.93	2.42947
24.94	2.4423
24.95	2.4548
24.96	2.48671
24.97	2.4798
24.98	2.47223
24.99	2.45611
25	2.4719
25.01	2.47256
25.02	2.43506
25.03	2.48506
25.04	2.49394
25.05	2.50151
25.06	2.46434
25.07	2.4548
25.08	2.46927
25.09	2.44361
25.1	2.46664
25.11	2.43638
25.12	2.46204
25.13	2.45973
25.14	2.43309
25.15	2.43901
25.16	2.44822
25.17	2.45282
25.18	2.45414
25.19	2.47914
25.2	2.48473
25.21	2.45513
25.22	2.4525
25.23	2.46039
25.24	2.44263
25.25	2.46006
25.26	2.46467
25.27	2.47848
25.28	2.45842
25.29	2.4423
25.3	2.4469
25.31	2.44986
25.32	2.46204
25.33	2.48506
25.34	2.47322
25.35	2.48934
25.36	2.47158
25.37	2.44
25.38	2.46664
25.39	2.4696
25.4	2.46204
25.41	2.44592
25.42	2.46006
25.43	2.47289
25.44	2.45644
25.45	2.46565
25.46	2.4469
25.47	2.46171
25.48	2.49197
25.49	2.46204
25.5	2.43703
25.51	2.44526
25.52	2.43769
25.53	2.47355
25.54	2.49131
25.55	2.48408
25.56	2.47914
25.57	2.44361
25.58	2.45546
25.59	2.45217
25.6	2.42947
25.61	2.44197
25.62	2.42651
25.63	2.43177
25.64	2.42749
25.65	2.41302
25.66	2.44098
25.67	2.45842
25.68	2.46302
25.69	2.4571
25.7	2.45315
25.71	2.48079
25.72	2.46204
25.73	2.46171
25.74	2.45875
25.75	2.47125
25.76	2.48046
25.77	2.45151
25.78	2.45381
25.79	2.47421
25.8	2.48967
25.81	2.46105
25.82	2.46072
25.83	2.50579
25.84	2.45644
25.85	2.44197
25.86	2.43309
25.87	2.4571
25.88	2.46697
25.89	2.47421
25.9	2.44131
25.91	2.45644
25.92	2.43868
25.93	2.45776
25.94	2.45315
25.95	2.46039
25.96	2.47355
25.97	2.47651
25.98	2.45052
25.99	2.44756
26	2.45644
26.01	2.44625
26.02	2.46236
26.03	2.48013
26.04	2.4423
26.05	2.4571
26.06	2.46697
26.07	2.45052
26.08	2.44921
26.09	2.46138
26.1	2.46434
26.11	2.46894
26.12	2.46236
26.13	2.45118
26.14	2.45677
26.15	2.42486
26.16	2.43967
26.17	2.43835
26.18	2.44888
26.19	2.45315
26.2	2.43539
26.21	2.44493
26.22	2.45776
26.23	2.47519
26.24	2.44328
26.25	2.48013
26.26	2.47848
26.27	2.49263
26.28	2.46598
26.29	2.45973
26.3	2.4775
26.31	2.45776
26.32	2.44822
26.33	2.48638
26.34	2.46335
26.35	2.41763
26.36	2.45315
26.37	2.46204
26.38	2.45315
26.39	2.4548
26.4	2.47848
26.41	2.46796
26.42	2.46401
26.43	2.45447
26.44	2.47026
26.45	2.48309
26.46	2.47388
26.47	2.44723
26.48	2.43901
26.49	2.45809
26.5	2.43638
26.51	2.43539
26.52	2.46533
26.53	2.46236
26.54	2.49625
26.55	2.48276
26.56	2.46861
26.57	2.47158
26.58	2.46006
26.59	2.47815
26.6	2.45348
26.61	2.44559
26.62	2.47026
26.63	2.46171
26.64	2.46631
26.65	2.46204
26.66	2.46598
26.67	2.46105
26.68	2.47158
26.69	2.4469
26.7	2.42618
26.71	2.44394
26.72	2.46927
26.73	2.46598
26.74	2.45184
26.75	2.47059
26.76	2.48473
26.77	2.4571
26.78	2.47914
26.79	2.46171
26.8	2.47289
26.81	2.4594
26.82	2.46368
26.83	2.47585
26.84	2.45513
26.85	2.45907
26.86	2.47322
26.87	2.45348
26.88	2.48013
26.89	2.46664
26.9	2.48408
26.91	2.48013
26.92	2.465
26.93	2.45809
26.94	2.44328
26.95	2.45348
26.96	2.47158
26.97	2.48079
26.98	2.42749
26.99	2.41763
27	2.43309
27.01	2.44888
27.02	2.47092
27.03	2.45809
27.04	2.46302
27.05	2.45907
27.06	2.47289
27.07	2.43177
27.08	2.44032
27.09	2.45118
27.1	2.43638
27.11	2.45973
27.12	2.46269
27.13	2.48243
27.14	2.46565
27.15	2.47158
27.16	2.47552
27.17	2.45677
27.18	2.44888
27.19	2.46697
27.2	2.465
27.21	2.46401
27.22	2.45776
27.23	2.47322
27.24	2.44197
27.25	2.46565
27.26	2.48144
27.27	2.44657
27.28	2.44263
27.29	2.47618
27.3	2.4594
27.31	2.48046
27.32	2.46401
27.33	2.45842
27.34	2.45743
27.35	2.45842
27.36	2.46533
27.37	2.46434
27.38	2.47223
27.39	2.49263
27.4	2.45315
27.41	2.45907
27.42	2.45579
27.43	2.48046
27.44	2.47026
27.45	2.43901
27.46	2.45348
27.47	2.46533
27.48	2.44921
27.49	2.47223
27.5	2.46039
27.51	2.44296
27.52	2.45546
27.53	2.46763
27.54	2.43309
27.55	2.44526
27.56	2.49164
27.57	2.48342
27.58	2.45743
27.59	2.47125
27.6	2.45776
27.61	2.46434
27.62	2.45217
27.63	2.43835
27.64	2.46171
27.65	2.47783
27.66	2.46368
27.67	2.46302
27.68	2.46401
27.69	2.44098
27.7	2.45579
27.71	2.46664
27.72	2.44592
27.73	2.46171
27.74	2.4446
27.75	2.43342
27.76	2.47881
27.77	2.43736
27.78	2.44954
27.79	2.46171
27.8	2.49131
27.81	2.47125
27.82	2.46204
27.83	2.4446
27.84	2.45809
27.85	2.47651
27.86	2.44263
27.87	2.45085
27.88	2.46664
27.89	2.46763
27.9	2.46434
27.91	2.45875
27.92	2.45447
27.93	2.48177
27.94	2.47421
27.95	2.43769
27.96	2.4469
27.97	2.4594
27.98	2.47256
27.99	2.45546
28	2.47421
28.01	2.49098
28.02	2.47585
28.03	2.45776
28.04	2.43375
28.05	2.45776
28.06	2.45447
28.07	2.45118
28.08	2.46598
28.09	2.46861
28.1	2.45447
28.11	2.4344
28.12	2.42552
28.13	2.47421
28.14	2.45611
28.15	2.46993
28.16	2.46204
28.17	2.45513
28.18	2.44657
28.19	2.46006
28.2	2.44756
28.21	2.44888
28.22	2.48013
28.23	2.4469
28.24	2.44657
28.25	2.43802
28.26	2.46763
28.27	2.4844
28.28	2.46434
28.29	2.44756
28.3	2.4446
28.31	2.47881
28.32	2.48506
28.33	2.4548
28.34	2.465
28.35	2.48046
28.36	2.47651
28.37	2.43769
28.38	2.47026
28.39	2.47322
28.4	2.43769
28.41	2.465
28.42	2.46993
28.43	2.45776
28.44	2.44328
28.45	2.45052
28.46	2.48638
28.47	2.47059
28.48	2.47355
28.49	2.47618
28.5	2.44592
28.51	2.47947
28.52	2.44427
28.53	2.42453
28.54	2.46171
28.55	2.44559
28.56	2.44197
28.57	2.44131
28.58	2.47486
28.59	2.48144
28.6	2.49
28.61	2.46565
28.62	2.46763
28.63	2.46302
28.64	2.46927
28.65	2.47881
28.66	2.42618
28.67	2.45907
28.68	2.49888
28.69	2.45315
28.7	2.47059
28.71	2.45118
28.72	2.45973
28.73	2.46236
28.74	2.4548
28.75	2.46368
28.76	2.43638
28.77	2.45677
28.78	2.46697
28.79	2.47158
28.8	2.46302
28.81	2.4594
28.82	2.46763
28.83	2.45875
28.84	2.44822
28.85	2.47519
28.86	2.43868
28.87	2.45875
28.88	2.45118
28.89	2.46401
28.9	2.47026
28.91	2.47717
28.92	2.47223
28.93	2.50085
28.94	2.47289
28.95	2.45611
28.96	2.48473
28.97	2.47618
28.98	2.46467
28.99	2.44954
29	2.46434
29.01	2.47848
29.02	2.43868
29.03	2.46204
29.04	2.46927
29.05	2.45118
29.06	2.46598
29.07	2.48309
29.08	2.45151
29.09	2.48342
29.1	2.43802
29.11	2.44855
29.12	2.45414
29.13	2.46236
29.14	2.46993
29.15	2.45776
29.16	2.45644
29.17	2.45513
29.18	2.46927
29.19	2.46072
29.2	2.48868
29.21	2.48539
29.22	2.46072
29.23	2.44855
29.24	2.44427
29.25	2.46763
29.26	2.45151
29.27	2.46204
29.28	2.46861
29.29	2.45118
29.3	2.46467
29.31	2.45315
29.32	2.4344
29.33	2.45118
29.34	2.44986
29.35	2.46829
29.36	2.42519
29.37	2.45085
29.38	2.46993
29.39	2.47947
29.4	2.45973
29.41	2.47322
29.42	2.46171
29.43	2.43144
29.44	2.42289
29.45	2.4719
29.46	2.4594
29.47	2.45348
29.48	2.43934
29.49	2.44098
29.5	2.45579
29.51	2.44954
29.52	2.45776
29.53	2.48079
29.54	2.44
29.55	2.43802
29.56	2.47486
29.57	2.46829
29.58	2.43769
29.59	2.4344
29.6	2.46039
29.61	2.44822
29.62	2.45118
29.63	2.48835
29.64	2.48112
29.65	2.45151
29.66	2.45513
29.67	2.43703
29.68	2.42552
29.69	2.43868
29.7	2.48704
29.71	2.45348
29.72	2.42157
29.73	2.44361
29.74	2.44427
29.75	2.45809
29.76	2.47717
29.77	2.47421
29.78	2.48605
29.79	2.47125
29.8	2.46861
29.81	2.46993
29.82	2.45184
29.83	2.41236
29.84	2.48046
29.85	2.46236
29.86	2.45151
29.87	2.45184
29.88	2.46269
29.89	2.47947
29.9	2.4946
29.91	2.44921
29.92	2.43111
29.93	2.46302
29.94	2.46368
29.95	2.45184
29.96	2.48408
29.97	2.46763
29.98	2.46894
29.99	2.46368
30	2.47881
