"BIO-KINE ASCII FILE"
"_COMMENT"	"MOS-500 Spectrometer"
"_COMMENT"	"Kinetics measurement"
"_COMMENT"	"Y Unit : Volt,  X Unit : s"
"_COMMENT"	"Excitation wavelength : 380 nm"
"_COMMENT"	"Fentes bandwidth =  1 nm"
"_COMMENT"	"HV= 1000V"
"_COMMENT"	"Timebase  1 =  .01 s   5001 pts"
"_SFM"	"SFM-400 /S  Advanced mode"
"_SFM"	"Ratio : S1: 2.5, S2: 0, S3: 0, S4: 1"
"_SFM"	"Content : S1: , S2: , S3: , S4:"
"_SFM"	"Concentration : S1: , S2: , S3: , S4:"
"_SFM"	"Total volume : 209 µl  Flow : 3.5 mL/s"
"_SFM"	"Acquisition start :  10 ms before stop"
"_SFM"	"cuve=FC-15, s1=10 ml , s2=10 ml , s3=10 ml , s4=1.9 ml"
"_UNITX"	"s"
"_UNITY"	"Volt"
"_DELTAX"	0
"_DATA"
1e-300	2.33999
0.01	2.39328
0.02	2.50118
0.03	2.48408
0.04	2.53671
0.05	2.5752
0.06	2.58342
0.07	2.62882
0.08	2.63605
0.09	2.65086
0.1	2.66138
0.11	2.62882
0.12	2.65546
0.13	2.64461
0.14	2.64132
0.15	2.66434
0.16	2.62191
0.17	2.64198
0.18	2.66467
0.19	2.70415
0.2	2.66434
0.21	2.63573
0.22	2.67388
0.23	2.66204
0.24	2.68671
0.25	2.71204
0.26	2.70185
0.27	2.69165
0.28	2.67717
0.29	2.66434
0.3	2.67652
0.31	2.69856
0.32	2.66336
0.33	2.69428
0.34	2.66402
0.35	2.69494
0.36	2.68902
0.37	2.69658
0.38	2.7127
0.39	2.6479
0.4	2.63803
0.41	2.64658
0.42	2.65283
0.43	2.66928
0.44	2.6831
0.45	2.66533
0.46	2.66007
0.47	2.68704
0.48	2.68046
0.49	2.70218
0.5	2.65678
0.51	2.65415
0.52	2.71862
0.53	2.68112
0.54	2.65842
0.55	2.67915
0.56	2.69987
0.57	2.7229
0.58	2.69362
0.59	2.67553
0.6	2.66402
0.61	2.68639
0.62	2.68342
0.63	2.67685
0.64	2.6775
0.65	2.68507
0.66	2.68704
0.67	2.66862
0.68	2.6775
0.69	2.65744
0.7	2.67191
0.71	2.67981
0.72	2.65152
0.73	2.62651
0.74	2.67553
0.75	2.67783
0.76	2.67125
0.77	2.68573
0.78	2.71073
0.79	2.70185
0.8	2.71435
0.81	2.68244
0.82	2.66533
0.83	2.6604
0.84	2.67388
0.85	2.66698
0.86	2.68639
0.87	2.67882
0.88	2.64855
0.89	2.67323
0.9	2.65513
0.91	2.65053
0.92	2.66895
0.93	2.67323
0.94	2.68013
0.95	2.65777
0.96	2.68244
0.97	2.66632
0.98	2.67981
0.99	2.67948
1	2.68013
1.01	2.68836
1.02	2.66763
1.03	2.65184
1.04	2.67356
1.05	2.66862
1.06	2.66434
1.07	2.70053
1.08	2.68967
1.09	2.66171
1.1	2.65579
1.11	2.65645
1.12	2.68178
1.13	2.67224
1.14	2.65908
1.15	2.65349
1.16	2.65777
1.17	2.70546
1.18	2.70382
1.19	2.69264
1.2	2.67388
1.21	2.6775
1.22	2.67388
1.23	2.66402
1.24	2.68342
1.25	2.69428
1.26	2.66138
1.27	2.65086
1.28	2.63474
1.29	2.65513
1.3	2.65974
1.31	2.64757
1.32	2.6729
1.33	2.64855
1.34	2.62948
1.35	2.63474
1.36	2.66994
1.37	2.69033
1.38	2.66434
1.39	2.65119
1.4	2.66895
1.41	2.68737
1.42	2.66961
1.43	2.65316
1.44	2.65546
1.45	2.65086
1.46	2.63934
1.47	2.63803
1.48	2.67717
1.49	2.66369
1.5	2.68046
1.51	2.67487
1.52	2.66533
1.53	2.64855
1.54	2.62619
1.55	2.65152
1.56	2.64592
1.57	2.64198
1.58	2.65152
1.59	2.66763
1.6	2.65941
1.61	2.65349
1.62	2.65481
1.63	2.67125
1.64	2.69395
1.65	2.69395
1.66	2.67454
1.67	2.65217
1.68	2.66303
1.69	2.65513
1.7	2.66895
1.71	2.64296
1.72	2.6377
1.73	2.6479
1.74	2.665
1.75	2.64921
1.76	2.65711
1.77	2.67388
1.78	2.66303
1.79	2.68869
1.8	2.68737
1.81	2.6752
1.82	2.6525
1.83	2.66007
1.84	2.67981
1.85	2.65448
1.86	2.64954
1.87	2.65645
1.88	2.67553
1.89	2.64395
1.9	2.66204
1.91	2.64066
1.92	2.67323
1.93	2.70086
1.94	2.62026
1.95	2.64033
1.96	2.6525
1.97	2.66204
1.98	2.65119
1.99	2.65842
2	2.66007
2.01	2.65842
2.02	2.62553
2.03	2.65349
2.04	2.6275
2.05	2.66895
2.06	2.65119
2.07	2.66369
2.08	2.64
2.09	2.62158
2.1	2.63309
2.11	2.64362
2.12	2.65875
2.13	2.66763
2.14	2.69757
2.15	2.67388
2.16	2.63013
2.17	2.64625
2.18	2.64099
2.19	2.64263
2.2	2.63112
2.21	2.65875
2.22	2.65711
2.23	2.63934
2.24	2.64494
2.25	2.66171
2.26	2.6354
2.27	2.64691
2.28	2.64954
2.29	2.63902
2.3	2.63737
2.31	2.6252
2.32	2.62388
2.33	2.65119
2.34	2.65119
2.35	2.64625
2.36	2.65579
2.37	2.64395
2.38	2.63276
2.39	2.63276
2.4	2.66007
2.41	2.67092
2.42	2.65316
2.43	2.65448
2.44	2.60678
2.45	2.65579
2.46	2.64691
2.47	2.69329
2.48	2.64461
2.49	2.63737
2.5	2.64461
2.51	2.63507
2.52	2.68178
2.53	2.66402
2.54	2.63704
2.55	2.62355
2.56	2.63145
2.57	2.60678
2.58	2.63408
2.59	2.65283
2.6	2.65711
2.61	2.63408
2.62	2.63408
2.63	2.67487
2.64	2.6525
2.65	2.62487
2.66	2.63967
2.67	2.6275
2.68	2.65777
2.69	2.64888
2.7	2.66895
2.71	2.63934
2.72	2.60546
2.73	2.6229
2.74	2.62717
2.75	2.62487
2.76	2.62421
2.77	2.61862
2.78	2.62553
2.79	2.63244
2.8	2.65711
2.81	2.63934
2.82	2.60974
2.83	2.64691
2.84	2.63737
2.85	2.6275
2.86	2.63276
2.87	2.63836
2.88	2.63013
2.89	2.64296
2.9	2.61566
2.91	2.62684
2.92	2.62092
2.93	2.63869
2.94	2.62092
2.95	2.64559
2.96	2.65283
2.97	2.62158
2.98	2.67158
2.99	2.66073
3	2.64559
3.01	2.64099
3.02	2.62026
3.03	2.66303
3.04	2.6275
3.05	2.63244
3.06	2.62816
3.07	2.63573
3.08	2.60513
3.09	2.62125
3.1	2.61632
3.11	2.63605
3.12	2.65579
3.13	2.62553
3.14	2.62816
3.15	2.63375
3.16	2.64263
3.17	2.63507
3.18	2.63276
3.19	2.63638
3.2	2.65711
3.21	2.63902
3.22	2.62684
3.23	2.63079
3.24	2.64263
3.25	2.64658
3.26	2.67257
3.27	2.63671
3.28	2.61303
3.29	2.61829
3.3	2.61401
3.31	2.63408
3.32	2.6354
3.33	2.66434
3.34	2.66467
3.35	2.6502
3.36	2.66007
3.37	2.64625
3.38	2.6127
3.39	2.61336
3.4	2.62948
3.41	2.69
3.42	2.63573
3.43	2.64527
3.44	2.62421
3.45	2.6275
3.46	2.6502
3.47	2.59362
3.48	2.6173
3.49	2.64099
3.5	2.63013
3.51	2.63276
3.52	2.61369
3.53	2.63211
3.54	2.65349
3.55	2.65777
3.56	2.63441
3.57	2.5979
3.58	2.64461
3.59	2.60086
3.6	2.63145
3.61	2.62553
3.62	2.61697
3.63	2.64033
3.64	2.63079
3.65	2.60151
3.66	2.60678
3.67	2.63474
3.68	2.63638
3.69	2.64527
3.7	2.63079
3.71	2.61467
3.72	2.62684
3.73	2.6127
3.74	2.61994
3.75	2.63967
3.76	2.61204
3.77	2.62684
3.78	2.61599
3.79	2.62454
3.8	2.63276
3.81	2.61862
3.82	2.63704
3.83	2.63967
3.84	2.6127
3.85	2.65481
3.86	2.61369
3.87	2.62092
3.88	2.64395
3.89	2.6275
3.9	2.61138
3.91	2.60053
3.92	2.62717
3.93	2.59559
3.94	2.62191
3.95	2.66204
3.96	2.64461
3.97	2.66007
3.98	2.64527
3.99	2.60283
4	2.61665
4.01	2.64592
4.02	2.6354
4.03	2.65152
4.04	2.63112
4.05	2.60283
4.06	2.58309
4.07	2.59921
4.08	2.60612
4.09	2.59855
4.1	2.62553
4.11	2.61829
4.12	2.60776
4.13	2.62355
4.14	2.62421
4.15	2.61961
4.16	2.64362
4.17	2.63276
4.18	2.63605
4.19	2.61138
4.2	2.64823
4.21	2.64527
4.22	2.6377
4.23	2.64428
4.24	2.62191
4.25	2.61533
4.26	2.61829
4.27	2.62092
4.28	2.63507
4.29	2.62026
4.3	2.62915
4.31	2.62454
4.32	2.64
4.33	2.63441
4.34	2.60612
4.35	2.64198
4.36	2.63638
4.37	2.59329
4.38	2.60941
4.39	2.65152
4.4	2.62355
4.41	2.62125
4.42	2.62224
4.43	2.61138
4.44	2.59987
4.45	2.63408
4.46	2.64033
4.47	2.59197
4.48	2.58342
4.49	2.58046
4.5	2.60546
4.51	2.60415
4.52	2.5877
4.53	2.60118
4.54	2.59296
4.55	2.62092
4.56	2.66303
4.57	2.65941
4.58	2.64329
4.59	2.61237
4.6	2.60086
4.61	2.63507
4.62	2.64033
4.63	2.64987
4.64	2.60349
4.65	2.62158
4.66	2.60447
4.67	2.6627
4.68	2.64329
4.69	2.64921
4.7	2.61599
4.71	2.60217
4.72	2.58868
4.73	2.58901
4.74	2.63013
4.75	2.66402
4.76	2.60217
4.77	2.61467
4.78	2.63474
4.79	2.59033
4.8	2.60316
4.81	2.60283
4.82	2.5923
4.83	2.59263
4.84	2.63112
4.85	2.64592
4.86	2.5923
4.87	2.60645
4.88	2.59757
4.89	2.59888
4.9	2.6104
4.91	2.59987
4.92	2.63079
4.93	2.62388
4.94	2.62092
4.95	2.60612
4.96	2.65152
4.97	2.63704
4.98	2.62717
4.99	2.60711
5	2.64198
5.01	2.60349
5.02	2.6127
5.03	2.66467
5.04	2.62224
5.05	2.63145
5.06	2.61434
5.07	2.59329
5.08	2.60842
5.09	2.60151
5.1	2.61072
5.11	2.59625
5.12	2.60053
5.13	2.5979
5.14	2.60908
5.15	2.65513
5.16	2.61007
5.17	2.59888
5.18	2.58375
5.19	2.60645
5.2	2.60513
5.21	2.63408
5.22	2.60612
5.23	2.61895
5.24	2.6298
5.25	2.60086
5.26	2.61829
5.27	2.5923
5.28	2.61303
5.29	2.62915
5.3	2.63112
5.31	2.63902
5.32	2.57684
5.33	2.59493
5.34	2.59132
5.35	2.60612
5.36	2.6298
5.37	2.63605
5.38	2.61994
5.39	2.59987
5.4	2.61336
5.41	2.60151
5.42	2.6104
5.43	2.60118
5.44	2.60744
5.45	2.61237
5.46	2.61566
5.47	2.62158
5.48	2.61763
5.49	2.62684
5.5	2.6127
5.51	2.55941
5.52	2.59592
5.53	2.59066
5.54	2.63605
5.55	2.62323
5.56	2.61632
5.57	2.63145
5.58	2.61171
5.59	2.61171
5.6	2.59592
5.61	2.63375
5.62	2.63902
5.63	2.59165
5.64	2.60579
5.65	2.6229
5.66	2.61533
5.67	2.59263
5.68	2.62224
5.69	2.60447
5.7	2.63244
5.71	2.6048
5.72	2.61599
5.73	2.63836
5.74	2.59822
5.75	2.64066
5.76	2.60612
5.77	2.59757
5.78	2.62783
5.79	2.62553
5.8	2.61632
5.81	2.62323
5.82	2.59493
5.83	2.59954
5.84	2.58178
5.85	2.62816
5.86	2.6127
5.87	2.57092
5.88	2.6048
5.89	2.57618
5.9	2.59625
5.91	2.60908
5.92	2.6002
5.93	2.61697
5.94	2.59888
5.95	2.61632
5.96	2.61204
5.97	2.61401
5.98	2.65086
5.99	2.65974
6	2.63605
6.01	2.62224
6.02	2.60776
6.03	2.62651
6.04	2.60546
6.05	2.58967
6.06	2.61007
6.07	2.61401
6.08	2.59526
6.09	2.57289
6.1	2.6002
6.11	2.61171
6.12	2.6173
6.13	2.60546
6.14	2.60546
6.15	2.58934
6.16	2.61467
6.17	2.57816
6.18	2.61105
6.19	2.59493
6.2	2.6002
6.21	2.59165
6.22	2.57947
6.23	2.59987
6.24	2.60711
6.25	2.6354
6.26	2.58375
6.27	2.56434
6.28	2.59395
6.29	2.60053
6.3	2.57717
6.31	2.58441
6.32	2.62125
6.33	2.59033
6.34	2.60118
6.35	2.61467
6.36	2.58671
6.37	2.61072
6.38	2.61895
6.39	2.62619
6.4	2.59822
6.41	2.61928
6.42	2.6002
6.43	2.62388
6.44	2.59329
6.45	2.59954
6.46	2.61796
6.47	2.62783
6.48	2.58178
6.49	2.60217
6.5	2.58013
6.51	2.57914
6.52	2.56928
6.53	2.62849
6.54	2.62092
6.55	2.59658
6.56	2.61303
6.57	2.61303
6.58	2.61204
6.59	2.59493
6.6	2.57026
6.61	2.56862
6.62	2.64724
6.63	2.62553
6.64	2.54888
6.65	2.60941
6.66	2.61763
6.67	2.58474
6.68	2.60513
6.69	2.62388
6.7	2.60151
6.71	2.61072
6.72	2.61566
6.73	2.59165
6.74	2.59625
6.75	2.60382
6.76	2.61171
6.77	2.60809
6.78	2.59822
6.79	2.63408
6.8	2.62849
6.81	2.59855
6.82	2.59
6.83	2.59428
6.84	2.58803
6.85	2.59395
6.86	2.60612
6.87	2.62586
6.88	2.61994
6.89	2.61697
6.9	2.6048
6.91	2.59888
6.92	2.63408
6.93	2.59362
6.94	2.58901
6.95	2.59559
6.96	2.60842
6.97	2.60086
6.98	2.58112
6.99	2.61796
7	2.62125
7.01	2.6127
7.02	2.61994
7.03	2.5877
7.04	2.56039
7.05	2.58309
7.06	2.58638
7.07	2.565
7.08	2.59
7.09	2.60151
7.1	2.62092
7.11	2.58178
7.12	2.59362
7.13	2.60908
7.14	2.58539
7.15	2.59395
7.16	2.58605
7.17	2.59362
7.18	2.59757
7.19	2.59559
7.2	2.61961
7.21	2.6173
7.22	2.6048
7.23	2.59559
7.24	2.58967
7.25	2.59066
7.26	2.59724
7.27	2.58605
7.28	2.62092
7.29	2.59592
7.3	2.57914
7.31	2.55809
7.32	2.59888
7.33	2.62158
7.34	2.58868
7.35	2.62619
7.36	2.62323
7.37	2.62224
7.38	2.59987
7.39	2.59263
7.4	2.57487
7.41	2.5696
7.42	2.56928
7.43	2.59329
7.44	2.60612
7.45	2.6048
7.46	2.59559
7.47	2.59987
7.48	2.57289
7.49	2.59066
7.5	2.59099
7.51	2.59658
7.52	2.59197
7.53	2.58507
7.54	2.58375
7.55	2.61336
7.56	2.61434
7.57	2.63704
7.58	2.57684
7.59	2.56829
7.6	2.62915
7.61	2.58934
7.62	2.58474
7.63	2.6025
7.64	2.59428
7.65	2.5923
7.66	2.58013
7.67	2.55908
7.68	2.6104
7.69	2.57257
7.7	2.59592
7.71	2.62487
7.72	2.60744
7.73	2.6252
7.74	2.60217
7.75	2.56697
7.76	2.56007
7.77	2.61632
7.78	2.59526
7.79	2.56829
7.8	2.55908
7.81	2.57125
7.82	2.57026
7.83	2.57257
7.84	2.56039
7.85	2.59691
7.86	2.57289
7.87	2.58441
7.88	2.60842
7.89	2.58178
7.9	2.59362
7.91	2.58112
7.92	2.60053
7.93	2.60546
7.94	2.63474
7.95	2.57257
7.96	2.58901
7.97	2.59724
7.98	2.60151
7.99	2.59724
8	2.59066
8.01	2.60645
8.02	2.59592
8.03	2.61204
8.04	2.55908
8.05	2.59954
8.06	2.58309
8.07	2.57322
8.08	2.6002
8.09	2.59165
8.1	2.59099
8.11	2.57454
8.12	2.57849
8.13	2.615
8.14	2.59855
8.15	2.59
8.16	2.56796
8.17	2.54756
8.18	2.60184
8.19	2.60447
8.2	2.60283
8.21	2.61072
8.22	2.59362
8.23	2.59625
8.24	2.57092
8.25	2.61369
8.26	2.63013
8.27	2.59921
8.28	2.58474
8.29	2.55842
8.3	2.55184
8.31	2.57914
8.32	2.55447
8.33	2.57586
8.34	2.59066
8.35	2.59921
8.36	2.60415
8.37	2.57618
8.38	2.58868
8.39	2.5775
8.4	2.60513
8.41	2.60678
8.42	2.60053
8.43	2.57487
8.44	2.58507
8.45	2.60711
8.46	2.57816
8.47	2.5775
8.48	2.58046
8.49	2.59
8.5	2.6025
8.51	2.56566
8.52	2.57125
8.53	2.61434
8.54	2.60612
8.55	2.58507
8.56	2.57092
8.57	2.57224
8.58	2.59132
8.59	2.59559
8.6	2.58638
8.61	2.60678
8.62	2.56763
8.63	2.59033
8.64	2.60118
8.65	2.59066
8.66	2.5979
8.67	2.61829
8.68	2.6229
8.69	2.58901
8.7	2.54987
8.71	2.57586
8.72	2.59263
8.73	2.60217
8.74	2.60546
8.75	2.58605
8.76	2.57191
8.77	2.57586
8.78	2.60546
8.79	2.59197
8.8	2.59197
8.81	2.62849
8.82	2.60447
8.83	2.61928
8.84	2.60151
8.85	2.59493
8.86	2.58934
8.87	2.57388
8.88	2.58309
8.89	2.60974
8.9	2.58474
8.91	2.57783
8.92	2.58737
8.93	2.58868
8.94	2.55381
8.95	2.58836
8.96	2.59888
8.97	2.60579
8.98	2.57783
8.99	2.60941
9	2.5775
9.01	2.54921
9.02	2.61237
9.03	2.57783
9.04	2.58507
9.05	2.58803
9.06	2.59954
9.07	2.58803
9.08	2.59691
9.09	2.59954
9.1	2.59822
9.11	2.59724
9.12	2.6002
9.13	2.62125
9.14	2.58342
9.15	2.62355
9.16	2.60546
9.17	2.60941
9.18	2.61336
9.19	2.59822
9.2	2.60908
9.21	2.60118
9.22	2.58671
9.23	2.58342
9.24	2.5877
9.25	2.58474
9.26	2.59296
9.27	2.59329
9.28	2.60217
9.29	2.57421
9.3	2.5627
9.31	2.56829
9.32	2.56533
9.33	2.57355
9.34	2.59099
9.35	2.60678
9.36	2.59132
9.37	2.56566
9.38	2.58836
9.39	2.61336
9.4	2.56632
9.41	2.56335
9.42	2.57684
9.43	2.59033
9.44	2.56434
9.45	2.56335
9.46	2.60415
9.47	2.59362
9.48	2.58276
9.49	2.60382
9.5	2.58803
9.51	2.58704
9.52	2.61138
9.53	2.60151
9.54	2.56533
9.55	2.57454
9.56	2.59559
9.57	2.60349
9.58	2.5571
9.59	2.59165
9.6	2.5798
9.61	2.57355
9.62	2.59197
9.63	2.61105
9.64	2.56533
9.65	2.57618
9.66	2.59691
9.67	2.59197
9.68	2.57355
9.69	2.56599
9.7	2.59691
9.71	2.59296
9.72	2.57487
9.73	2.58474
9.74	2.58803
9.75	2.57092
9.76	2.58342
9.77	2.58605
9.78	2.57191
9.79	2.56796
9.8	2.58539
9.81	2.56895
9.82	2.57125
9.83	2.57289
9.84	2.59066
9.85	2.58013
9.86	2.57092
9.87	2.58276
9.88	2.58046
9.89	2.59
9.9	2.58046
9.91	2.60645
9.92	2.5798
9.93	2.57224
9.94	2.56138
9.95	2.58145
9.96	2.60612
9.97	2.59033
9.98	2.61138
9.99	2.60579
10	2.58145
10.01	2.56829
10.02	2.55645
10.03	2.53474
10.04	2.5446
10.05	2.57553
10.06	2.5798
10.07	2.60053
10.08	2.60776
10.09	2.58539
10.1	2.60086
10.11	2.56895
10.12	2.59625
10.13	2.5696
10.14	2.57026
10.15	2.58342
10.16	2.54921
10.17	2.55776
10.18	2.60842
10.19	2.57947
10.2	2.57224
10.21	2.5775
10.22	2.58934
10.23	2.57454
10.24	2.58539
10.25	2.55381
10.26	2.55349
10.27	2.57158
10.28	2.57059
10.29	2.55085
10.3	2.58211
10.31	2.57191
10.32	2.56072
10.33	2.57454
10.34	2.58342
10.35	2.58572
10.36	2.56335
10.37	2.55645
10.38	2.61336
10.39	2.58737
10.4	2.55842
10.41	2.59263
10.42	2.57158
10.43	2.58967
10.44	2.58474
10.45	2.59263
10.46	2.58145
10.47	2.5775
10.48	2.56796
10.49	2.55842
10.5	2.58342
10.51	2.58276
10.52	2.58671
10.53	2.58572
10.54	2.58868
10.55	2.56533
10.56	2.56138
10.57	2.58671
10.58	2.58276
10.59	2.59526
10.6	2.61336
10.61	2.61204
10.62	2.60842
10.63	2.54855
10.64	2.57224
10.65	2.59724
10.66	2.56368
10.67	2.57257
10.68	2.59165
10.69	2.58112
10.7	2.58507
10.71	2.55217
10.72	2.55579
10.73	2.58737
10.74	2.59526
10.75	2.56697
10.76	2.59066
10.77	2.58704
10.78	2.56007
10.79	2.58474
10.8	2.62125
10.81	2.60415
10.82	2.59099
10.83	2.58112
10.84	2.58934
10.85	2.57783
10.86	2.59066
10.87	2.5696
10.88	2.59395
10.89	2.57849
10.9	2.58441
10.91	2.57849
10.92	2.5696
10.93	2.57026
10.94	2.57224
10.95	2.61632
10.96	2.55678
10.97	2.53967
10.98	2.54954
10.99	2.57783
11	2.54921
11.01	2.57586
11.02	2.61928
11.03	2.59888
11.04	2.61369
11.05	2.57816
11.06	2.56368
11.07	2.55381
11.08	2.58243
11.09	2.5627
11.1	2.59724
11.11	2.56796
11.12	2.57717
11.13	2.58211
11.14	2.58507
11.15	2.60908
11.16	2.61763
11.17	2.58145
11.18	2.57421
11.19	2.59526
11.2	2.59822
11.21	2.57092
11.22	2.55941
11.23	2.55151
11.24	2.55579
11.25	2.56007
11.26	2.56566
11.27	2.58408
11.28	2.61303
11.29	2.53079
11.3	2.54724
11.31	2.58572
11.32	2.6173
11.33	2.56829
11.34	2.56632
11.35	2.56039
11.36	2.58572
11.37	2.58408
11.38	2.56138
11.39	2.59526
11.4	2.6025
11.41	2.57454
11.42	2.57487
11.43	2.54263
11.44	2.57684
11.45	2.58934
11.46	2.57849
11.47	2.5571
11.48	2.59066
11.49	2.55447
11.5	2.54987
11.51	2.56072
11.52	2.55381
11.53	2.57289
11.54	2.56632
11.55	2.60316
11.56	2.57092
11.57	2.58671
11.58	2.58671
11.59	2.61467
11.6	2.59691
11.61	2.56007
11.62	2.59625
11.63	2.58737
11.64	2.62684
11.65	2.59263
11.66	2.59954
11.67	2.58046
11.68	2.56599
11.69	2.56763
11.7	2.54724
11.71	2.56533
11.72	2.57059
11.73	2.58342
11.74	2.56007
11.75	2.55743
11.76	2.60447
11.77	2.56303
11.78	2.56829
11.79	2.57289
11.8	2.56335
11.81	2.57618
11.82	2.59625
11.83	2.56796
11.84	2.57553
11.85	2.55316
11.86	2.58342
11.87	2.57092
11.88	2.60053
11.89	2.58967
11.9	2.56171
11.91	2.57882
11.92	2.57783
11.93	2.57487
11.94	2.56303
11.95	2.5673
11.96	2.58671
11.97	2.56862
11.98	2.58539
11.99	2.57092
12	2.5798
12.01	2.61928
12.02	2.59592
12.03	2.56632
12.04	2.57947
12.05	2.5752
12.06	2.57092
12.07	2.57257
12.08	2.5627
12.09	2.60513
12.1	2.58638
12.11	2.54756
12.12	2.5548
12.13	2.55941
12.14	2.54789
12.15	2.56039
12.16	2.56434
12.17	2.58967
12.18	2.59362
12.19	2.58046
12.2	2.60184
12.21	2.55941
12.22	2.60382
12.23	2.59888
12.24	2.56105
12.25	2.56632
12.26	2.55283
12.27	2.55875
12.28	2.55842
12.29	2.54954
12.3	2.56303
12.31	2.58605
12.32	2.57059
12.33	2.56796
12.34	2.5673
12.35	2.57026
12.36	2.57553
12.37	2.57224
12.38	2.56105
12.39	2.55283
12.4	2.57849
12.41	2.5775
12.42	2.5673
12.43	2.57651
12.44	2.54592
12.45	2.54329
12.46	2.56566
12.47	2.58342
12.48	2.58375
12.49	2.58572
12.5	2.56599
12.51	2.56072
12.52	2.56237
12.53	2.5775
12.54	2.57487
12.55	2.56467
12.56	2.54592
12.57	2.57289
12.58	2.57257
12.59	2.59132
12.6	2.56533
12.61	2.54428
12.62	2.57224
12.63	2.57816
12.64	2.56204
12.65	2.5752
12.66	2.58507
12.67	2.55184
12.68	2.56599
12.69	2.57816
12.7	2.6104
12.71	2.5798
12.72	2.5525
12.73	2.5423
12.74	2.56401
12.75	2.55546
12.76	2.57026
12.77	2.56204
12.78	2.56171
12.79	2.53375
12.8	2.54197
12.81	2.55447
12.82	2.5775
12.83	2.58211
12.84	2.5525
12.85	2.59296
12.86	2.58803
12.87	2.58408
12.88	2.52585
12.89	2.55842
12.9	2.58178
12.91	2.61533
12.92	2.60053
12.93	2.59
12.94	2.54033
12.95	2.57388
12.96	2.5752
12.97	2.55118
12.98	2.57618
12.99	2.55053
13	2.57487
13.01	2.59724
13.02	2.59691
13.03	2.59
13.04	2.56763
13.05	2.56467
13.06	2.54
13.07	2.54822
13.08	2.56533
13.09	2.5752
13.1	2.59526
13.11	2.55447
13.12	2.58211
13.13	2.58441
13.14	2.57454
13.15	2.55645
13.16	2.56434
13.17	2.59395
13.18	2.58671
13.19	2.52849
13.2	2.55875
13.21	2.57454
13.22	2.56204
13.23	2.54197
13.24	2.55349
13.25	2.59855
13.26	2.5696
13.27	2.57947
13.28	2.5548
13.29	2.58342
13.3	2.55053
13.31	2.57224
13.32	2.56204
13.33	2.59165
13.34	2.57092
13.35	2.55414
13.36	2.58178
13.37	2.57257
13.38	2.54954
13.39	2.58243
13.4	2.58836
13.41	2.56467
13.42	2.57454
13.43	2.56072
13.44	2.54164
13.45	2.54197
13.46	2.55053
13.47	2.56401
13.48	2.56335
13.49	2.58178
13.5	2.57355
13.51	2.58276
13.52	2.58441
13.53	2.54855
13.54	2.58638
13.55	2.57914
13.56	2.54756
13.57	2.55053
13.58	2.55908
13.59	2.52881
13.6	2.55546
13.61	2.58243
13.62	2.56862
13.63	2.59066
13.64	2.58967
13.65	2.56632
13.66	2.55381
13.67	2.53934
13.68	2.55349
13.69	2.54263
13.7	2.57849
13.71	2.57586
13.72	2.55546
13.73	2.57914
13.74	2.54131
13.75	2.57125
13.76	2.58572
13.77	2.55612
13.78	2.5571
13.79	2.56763
13.8	2.56697
13.81	2.56928
13.82	2.59493
13.83	2.5525
13.84	2.53802
13.85	2.51796
13.86	2.54526
13.87	2.55842
13.88	2.57125
13.89	2.57059
13.9	2.52618
13.91	2.52487
13.92	2.55776
13.93	2.55579
13.94	2.57026
13.95	2.57289
13.96	2.55085
13.97	2.55283
13.98	2.56993
13.99	2.56763
14	2.5798
14.01	2.56862
14.02	2.55283
14.03	2.56763
14.04	2.58145
14.05	2.55612
14.06	2.57454
14.07	2.56533
14.08	2.57257
14.09	2.55381
14.1	2.56204
14.11	2.56467
14.12	2.54164
14.13	2.56566
14.14	2.56993
14.15	2.58309
14.16	2.56072
14.17	2.55875
14.18	2.56664
14.19	2.58276
14.2	2.5446
14.21	2.56796
14.22	2.56664
14.23	2.57191
14.24	2.57224
14.25	2.55414
14.26	2.55908
14.27	2.54888
14.28	2.54296
14.29	2.55809
14.3	2.59033
14.31	2.57322
14.32	2.5446
14.33	2.54789
14.34	2.54691
14.35	2.57224
14.36	2.55151
14.37	2.54362
14.38	2.56171
14.39	2.57257
14.4	2.56039
14.41	2.56007
14.42	2.54197
14.43	2.57684
14.44	2.58605
14.45	2.54197
14.46	2.55908
14.47	2.61072
14.48	2.56072
14.49	2.54888
14.5	2.57651
14.51	2.55414
14.52	2.5548
14.53	2.55349
14.54	2.57289
14.55	2.5423
14.56	2.58046
14.57	2.56335
14.58	2.56204
14.59	2.5775
14.6	2.54493
14.61	2.56533
14.62	2.5525
14.63	2.55809
14.64	2.5752
14.65	2.55414
14.66	2.57454
14.67	2.55349
14.68	2.55151
14.69	2.53243
14.7	2.55381
14.71	2.54691
14.72	2.55085
14.73	2.53145
14.74	2.54921
14.75	2.5571
14.76	2.55118
14.77	2.54099
14.78	2.57026
14.79	2.56138
14.8	2.56993
14.81	2.55875
14.82	2.57289
14.83	2.58211
14.84	2.54526
14.85	2.59691
14.86	2.55743
14.87	2.54164
14.88	2.58013
14.89	2.56862
14.9	2.58572
14.91	2.56993
14.92	2.58309
14.93	2.54296
14.94	2.54033
14.95	2.55316
14.96	2.5752
14.97	2.57158
14.98	2.56138
14.99	2.55941
15	2.55447
15.01	2.55842
15.02	2.57388
15.03	2.54395
15.04	2.54921
15.05	2.5752
15.06	2.58309
15.07	2.55414
15.08	2.54428
15.09	2.54724
15.1	2.54789
15.11	2.55414
15.12	2.5673
15.13	2.53506
15.14	2.58737
15.15	2.55513
15.16	2.57454
15.17	2.55414
15.18	2.56303
15.19	2.53276
15.2	2.5673
15.21	2.57849
15.22	2.5775
15.23	2.54493
15.24	2.56171
15.25	2.54888
15.26	2.56434
15.27	2.58803
15.28	2.58638
15.29	2.54625
15.3	2.56632
15.31	2.59428
15.32	2.57849
15.33	2.55579
15.34	2.57224
15.35	2.58375
15.36	2.59954
15.37	2.55414
15.38	2.54
15.39	2.58145
15.4	2.55381
15.41	2.55546
15.42	2.57059
15.43	2.56204
15.44	2.5627
15.45	2.5571
15.46	2.5752
15.47	2.56072
15.48	2.56237
15.49	2.57092
15.5	2.59099
15.51	2.57388
15.52	2.57816
15.53	2.55381
15.54	2.53868
15.55	2.55414
15.56	2.55118
15.57	2.54789
15.58	2.58375
15.59	2.58178
15.6	2.58112
15.61	2.58474
15.62	2.57322
15.63	2.57454
15.64	2.55085
15.65	2.54987
15.66	2.52717
15.67	2.54099
15.68	2.55941
15.69	2.54592
15.7	2.58539
15.71	2.59099
15.72	2.53605
15.73	2.54724
15.74	2.53901
15.75	2.5571
15.76	2.55513
15.77	2.57355
15.78	2.57717
15.79	2.58539
15.8	2.57355
15.81	2.55349
15.82	2.5571
15.83	2.55941
15.84	2.56105
15.85	2.55447
15.86	2.56796
15.87	2.5298
15.88	2.52125
15.89	2.56763
15.9	2.57355
15.91	2.56664
15.92	2.565
15.93	2.56993
15.94	2.57191
15.95	2.57059
15.96	2.58539
15.97	2.58671
15.98	2.56993
15.99	2.58013
16	2.55908
16.01	2.59296
16.02	2.57882
16.03	2.55283
16.04	2.57586
16.05	2.56796
16.06	2.55776
16.07	2.56697
16.08	2.56401
16.09	2.57355
16.1	2.55875
16.11	2.55513
16.12	2.54329
16.13	2.55546
16.14	2.5673
16.15	2.53737
16.16	2.56599
16.17	2.55349
16.18	2.57947
16.19	2.58178
16.2	2.58145
16.21	2.56566
16.22	2.53934
16.23	2.55678
16.24	2.55447
16.25	2.54822
16.26	2.55875
16.27	2.55612
16.28	2.57717
16.29	2.61138
16.3	2.56632
16.31	2.59329
16.32	2.57092
16.33	2.56533
16.34	2.54691
16.35	2.54888
16.36	2.56895
16.37	2.56566
16.38	2.53408
16.39	2.54954
16.4	2.57849
16.41	2.56697
16.42	2.53013
16.43	2.54395
16.44	2.55283
16.45	2.54197
16.46	2.54625
16.47	2.56796
16.48	2.5696
16.49	2.56007
16.5	2.56303
16.51	2.55513
16.52	2.55349
16.53	2.57388
16.54	2.5627
16.55	2.56105
16.56	2.54362
16.57	2.56599
16.58	2.55217
16.59	2.54263
16.6	2.55053
16.61	2.51664
16.62	2.56993
16.63	2.56664
16.64	2.56138
16.65	2.59855
16.66	2.57684
16.67	2.55875
16.68	2.54296
16.69	2.54855
16.7	2.54822
16.71	2.54954
16.72	2.58507
16.73	2.58178
16.74	2.52322
16.75	2.54428
16.76	2.54921
16.77	2.56007
16.78	2.54822
16.79	2.54888
16.8	2.51862
16.81	2.52881
16.82	2.56862
16.83	2.5798
16.84	2.55546
16.85	2.60316
16.86	2.58737
16.87	2.56204
16.88	2.56171
16.89	2.54987
16.9	2.59099
16.91	2.54756
16.92	2.55085
16.93	2.54526
16.94	2.57191
16.95	2.58408
16.96	2.55645
16.97	2.59362
16.98	2.53934
16.99	2.5377
17	2.54033
17.01	2.55579
17.02	2.54066
17.03	2.56467
17.04	2.5627
17.05	2.56138
17.06	2.5298
17.07	2.53013
17.08	2.54197
17.09	2.53112
17.1	2.5571
17.11	2.54789
17.12	2.56829
17.13	2.56895
17.14	2.54724
17.15	2.54164
17.16	2.58211
17.17	2.5627
17.18	2.56368
17.19	2.54559
17.2	2.56335
17.21	2.56763
17.22	2.54
17.23	2.56467
17.24	2.56697
17.25	2.57651
17.26	2.56204
17.27	2.56303
17.28	2.54296
17.29	2.54625
17.3	2.54592
17.31	2.54987
17.32	2.52849
17.33	2.54559
17.34	2.51697
17.35	2.58309
17.36	2.57684
17.37	2.57092
17.38	2.55875
17.39	2.54855
17.4	2.56599
17.41	2.57454
17.42	2.56303
17.43	2.55974
17.44	2.55316
17.45	2.53474
17.46	2.57553
17.47	2.56796
17.48	2.56204
17.49	2.55447
17.5	2.54888
17.51	2.55053
17.52	2.55842
17.53	2.5548
17.54	2.55941
17.55	2.58605
17.56	2.56467
17.57	2.53638
17.58	2.56368
17.59	2.54888
17.6	2.53474
17.61	2.56401
17.62	2.5525
17.63	2.56072
17.64	2.55414
17.65	2.5673
17.66	2.55809
17.67	2.56796
17.68	2.57914
17.69	2.56895
17.7	2.5752
17.71	2.54164
17.72	2.5775
17.73	2.56599
17.74	2.57421
17.75	2.54724
17.76	2.52355
17.77	2.52026
17.78	2.52947
17.79	2.52651
17.8	2.55678
17.81	2.54066
17.82	2.57059
17.83	2.56368
17.84	2.54855
17.85	2.54789
17.86	2.53704
17.87	2.55447
17.88	2.59855
17.89	2.59493
17.9	2.59395
17.91	2.54493
17.92	2.56928
17.93	2.55513
17.94	2.57191
17.95	2.56796
17.96	2.55776
17.97	2.56566
17.98	2.56533
17.99	2.54526
18	2.56072
18.01	2.52651
18.02	2.58276
18.03	2.56434
18.04	2.5673
18.05	2.55316
18.06	2.56039
18.07	2.54592
18.08	2.52026
18.09	2.55842
18.1	2.55776
18.11	2.57388
18.12	2.56237
18.13	2.57651
18.14	2.54888
18.15	2.51829
18.16	2.53079
18.17	2.55513
18.18	2.55053
18.19	2.53506
18.2	2.56368
18.21	2.55513
18.22	2.53177
18.23	2.53802
18.24	2.57717
18.25	2.54921
18.26	2.55316
18.27	2.56105
18.28	2.55875
18.29	2.57849
18.3	2.5673
18.31	2.57092
18.32	2.57026
18.33	2.5275
18.34	2.54296
18.35	2.57816
18.36	2.5673
18.37	2.5627
18.38	2.55743
18.39	2.55447
18.4	2.57026
18.41	2.58539
18.42	2.56434
18.43	2.5571
18.44	2.56829
18.45	2.58605
18.46	2.59033
18.47	2.58145
18.48	2.58309
18.49	2.58145
18.5	2.56434
18.51	2.53802
18.52	2.53967
18.53	2.56204
18.54	2.54921
18.55	2.5548
18.56	2.55974
18.57	2.54855
18.58	2.55118
18.59	2.52651
18.6	2.53737
18.61	2.53177
18.62	2.54131
18.63	2.55974
18.64	2.54197
18.65	2.54559
18.66	2.57487
18.67	2.57355
18.68	2.54987
18.69	2.53868
18.7	2.56664
18.71	2.565
18.72	2.55612
18.73	2.5525
18.74	2.53638
18.75	2.54756
18.76	2.53506
18.77	2.54789
18.78	2.56401
18.79	2.56829
18.8	2.53605
18.81	2.56796
18.82	2.58276
18.83	2.55283
18.84	2.54131
18.85	2.54592
18.86	2.54033
18.87	2.55743
18.88	2.58539
18.89	2.56007
18.9	2.54099
18.91	2.56599
18.92	2.54592
18.93	2.52849
18.94	2.56138
18.95	2.52223
18.96	2.54954
18.97	2.5627
18.98	2.54921
18.99	2.56697
19	2.58375
19.01	2.55118
19.02	2.58737
19.03	2.54362
19.04	2.55974
19.05	2.57355
19.06	2.56829
19.07	2.56204
19.08	2.54822
19.09	2.5696
19.1	2.5877
19.11	2.53342
19.12	2.54
19.13	2.5275
19.14	2.56303
19.15	2.58211
19.16	2.565
19.17	2.57158
19.18	2.57882
19.19	2.57388
19.2	2.56072
19.21	2.55447
19.22	2.5502
19.23	2.53079
19.24	2.56335
19.25	2.55974
19.26	2.53046
19.27	2.53835
19.28	2.55118
19.29	2.53835
19.3	2.55809
19.31	2.56566
19.32	2.59362
19.33	2.52684
19.34	2.49921
19.35	2.52223
19.36	2.56862
19.37	2.60612
19.38	2.54888
19.39	2.55283
19.4	2.56171
19.41	2.54428
19.42	2.50316
19.43	2.53441
19.44	2.55184
19.45	2.565
19.46	2.54263
19.47	2.55809
19.48	2.56237
19.49	2.56829
19.5	2.54428
19.51	2.53342
19.52	2.55217
19.53	2.55414
19.54	2.55316
19.55	2.53375
19.56	2.53967
19.57	2.53506
19.58	2.54756
19.59	2.53276
19.6	2.52849
19.61	2.52092
19.62	2.56072
19.63	2.56467
19.64	2.53046
19.65	2.54296
19.66	2.54164
19.67	2.53967
19.68	2.52487
19.69	2.54362
19.7	2.54921
19.71	2.55908
19.72	2.59033
19.73	2.56895
19.74	2.58474
19.75	2.55974
19.76	2.54691
19.77	2.55118
19.78	2.55316
19.79	2.54493
19.8	2.5525
19.81	2.55381
19.82	2.53276
19.83	2.51566
19.84	2.55053
19.85	2.55283
19.86	2.56368
19.87	2.58868
19.88	2.59099
19.89	2.59461
19.9	2.56368
19.91	2.58145
19.92	2.56895
19.93	2.54789
19.94	2.54164
19.95	2.54691
19.96	2.53671
19.97	2.51927
19.98	2.56862
19.99	2.54296
20	2.54625
20.01	2.54592
20.02	2.52783
20.03	2.53638
20.04	2.57191
20.05	2.58605
20.06	2.54888
20.07	2.56763
20.08	2.55513
20.09	2.54263
20.1	2.54329
20.11	2.55283
20.12	2.56796
20.13	2.52256
20.14	2.57257
20.15	2.52289
20.16	2.55809
20.17	2.55151
20.18	2.53802
20.19	2.5377
20.2	2.54559
20.21	2.57224
20.22	2.54131
20.23	2.58079
20.24	2.57454
20.25	2.56138
20.26	2.54625
20.27	2.58079
20.28	2.57684
20.29	2.53967
20.3	2.58013
20.31	2.56829
20.32	2.54987
20.33	2.56829
20.34	2.57421
20.35	2.5627
20.36	2.54987
20.37	2.56368
20.38	2.5502
20.39	2.56434
20.4	2.52322
20.41	2.53901
20.42	2.53737
20.43	2.54362
20.44	2.57059
20.45	2.58145
20.46	2.55283
20.47	2.53276
20.48	2.5525
20.49	2.54428
20.5	2.5525
20.51	2.55513
20.52	2.57191
20.53	2.55974
20.54	2.56105
20.55	2.57224
20.56	2.56105
20.57	2.54559
20.58	2.55809
20.59	2.54099
20.6	2.55118
20.61	2.54493
20.62	2.55283
20.63	2.55381
20.64	2.54592
20.65	2.57454
20.66	2.54033
20.67	2.51237
20.68	2.56796
20.69	2.58408
20.7	2.56697
20.71	2.57158
20.72	2.52717
20.73	2.57816
20.74	2.59691
20.75	2.58112
20.76	2.57684
20.77	2.53605
20.78	2.56434
20.79	2.53474
20.8	2.52487
20.81	2.53671
20.82	2.53539
20.83	2.56007
20.84	2.55579
20.85	2.55875
20.86	2.56401
20.87	2.55085
20.88	2.54296
20.89	2.52618
20.9	2.51368
20.91	2.53638
20.92	2.55842
20.93	2.54954
20.94	2.53309
20.95	2.54691
20.96	2.56171
20.97	2.54066
20.98	2.53408
20.99	2.55184
21	2.5298
21.01	2.51862
21.02	2.54428
21.03	2.56171
21.04	2.54329
21.05	2.54493
21.06	2.55875
21.07	2.55513
21.08	2.54888
21.09	2.54099
21.1	2.54428
21.11	2.57553
21.12	2.5423
21.13	2.57355
21.14	2.53934
21.15	2.53704
21.16	2.5627
21.17	2.55118
21.18	2.5627
21.19	2.55085
21.2	2.57717
21.21	2.56829
21.22	2.54888
21.23	2.54855
21.24	2.54987
21.25	2.54954
21.26	2.53441
21.27	2.53638
21.28	2.54428
21.29	2.5548
21.3	2.57783
21.31	2.5571
21.32	2.55513
21.33	2.55184
21.34	2.56566
21.35	2.56697
21.36	2.52816
21.37	2.53112
21.38	2.55283
21.39	2.56928
21.4	2.52914
21.41	2.5525
21.42	2.58671
21.43	2.55842
21.44	2.55447
21.45	2.55053
21.46	2.53079
21.47	2.55414
21.48	2.53802
21.49	2.55579
21.5	2.52849
21.51	2.54164
21.52	2.53408
21.53	2.56533
21.54	2.54855
21.55	2.55447
21.56	2.53835
21.57	2.55513
21.58	2.53901
21.59	2.54789
21.6	2.54164
21.61	2.51862
21.62	2.55184
21.63	2.54526
21.64	2.55776
21.65	2.5525
21.66	2.51862
21.67	2.53046
21.68	2.50908
21.69	2.50776
21.7	2.54756
21.71	2.53967
21.72	2.54197
21.73	2.55349
21.74	2.55941
21.75	2.55151
21.76	2.55414
21.77	2.56763
21.78	2.55381
21.79	2.55645
21.8	2.54724
21.81	2.54789
21.82	2.54559
21.83	2.55743
21.84	2.55381
21.85	2.54921
21.86	2.56303
21.87	2.54822
21.88	2.56138
21.89	2.5696
21.9	2.55546
21.91	2.56007
21.92	2.56105
21.93	2.54526
21.94	2.58013
21.95	2.57882
21.96	2.53671
21.97	2.53177
21.98	2.55316
21.99	2.5502
22	2.54493
22.01	2.56335
22.02	2.55612
22.03	2.5377
22.04	2.54559
22.05	2.5377
22.06	2.54164
22.07	2.52783
22.08	2.54526
22.09	2.55447
22.1	2.52125
22.11	2.55381
22.12	2.54921
22.13	2.55447
22.14	2.5502
22.15	2.52717
22.16	2.57355
22.17	2.58901
22.18	2.5673
22.19	2.55612
22.2	2.55941
22.21	2.565
22.22	2.54888
22.23	2.57947
22.24	2.56632
22.25	2.53967
22.26	2.53441
22.27	2.55414
22.28	2.52881
22.29	2.52388
22.3	2.52223
22.31	2.53309
22.32	2.55612
22.33	2.55645
22.34	2.55118
22.35	2.56204
22.36	2.53474
22.37	2.55184
22.38	2.56434
22.39	2.57125
22.4	2.56599
22.41	2.56039
22.42	2.58145
22.43	2.54
22.44	2.53704
22.45	2.53079
22.46	2.54362
22.47	2.56697
22.48	2.55743
22.49	2.54855
22.5	2.55447
22.51	2.55974
22.52	2.53901
22.53	2.56303
22.54	2.54691
22.55	2.55151
22.56	2.5696
22.57	2.54724
22.58	2.55349
22.59	2.55447
22.6	2.5446
22.61	2.54789
22.62	2.55579
22.63	2.54987
22.64	2.52849
22.65	2.54099
22.66	2.54099
22.67	2.52914
22.68	2.565
22.69	2.55151
22.7	2.57816
22.71	2.55349
22.72	2.50973
22.73	2.51434
22.74	2.52388
22.75	2.55184
22.76	2.5446
22.77	2.54197
22.78	2.5548
22.79	2.53868
22.8	2.52191
22.81	2.52421
22.82	2.53868
22.83	2.53112
22.84	2.5321
22.85	2.53704
22.86	2.56467
22.87	2.57586
22.88	2.56599
22.89	2.56237
22.9	2.57125
22.91	2.53441
22.92	2.50776
22.93	2.51829
22.94	2.49559
22.95	2.55283
22.96	2.5696
22.97	2.53342
22.98	2.53802
22.99	2.56599
23	2.53375
23.01	2.52256
23.02	2.53671
23.03	2.55217
23.04	2.54559
23.05	2.54
23.06	2.54658
23.07	2.54756
23.08	2.53802
23.09	2.53605
23.1	2.52026
23.11	2.53112
23.12	2.54822
23.13	2.55842
23.14	2.55579
23.15	2.59296
23.16	2.5377
23.17	2.53506
23.18	2.50908
23.19	2.54
23.2	2.52816
23.21	2.54987
23.22	2.55612
23.23	2.56368
23.24	2.56303
23.25	2.53408
23.26	2.57224
23.27	2.54756
23.28	2.54197
23.29	2.55316
23.3	2.56467
23.31	2.54197
23.32	2.52289
23.33	2.59921
23.34	2.55151
23.35	2.54
23.36	2.56895
23.37	2.53934
23.38	2.54296
23.39	2.52059
23.4	2.55414
23.41	2.54592
23.42	2.53802
23.43	2.53802
23.44	2.52355
23.45	2.53375
23.46	2.56039
23.47	2.56138
23.48	2.55941
23.49	2.54987
23.5	2.59
23.51	2.54888
23.52	2.54362
23.53	2.56796
23.54	2.58013
23.55	2.55776
23.56	2.55184
23.57	2.52783
23.58	2.53967
23.59	2.53605
23.6	2.54855
23.61	2.54033
23.62	2.53474
23.63	2.54658
23.64	2.54954
23.65	2.5627
23.66	2.53474
23.67	2.53934
23.68	2.52388
23.69	2.53605
23.7	2.55809
23.71	2.51796
23.72	2.53145
23.73	2.55776
23.74	2.5275
23.75	2.54658
23.76	2.54395
23.77	2.54263
23.78	2.57717
23.79	2.57322
23.8	2.54822
23.81	2.56368
23.82	2.54691
23.83	2.54362
23.84	2.56171
23.85	2.55184
23.86	2.54033
23.87	2.55743
23.88	2.54164
23.89	2.54296
23.9	2.55776
23.91	2.55974
23.92	2.57092
23.93	2.54526
23.94	2.54197
23.95	2.54263
23.96	2.5377
23.97	2.51434
23.98	2.52914
23.99	2.54888
24	2.57191
24.01	2.57224
24.02	2.55447
24.03	2.5548
24.04	2.53506
24.05	2.52651
24.06	2.54559
24.07	2.54592
24.08	2.51566
24.09	2.54329
24.1	2.54855
24.11	2.52256
24.12	2.56763
24.13	2.52059
24.14	2.53868
24.15	2.52059
24.16	2.5252
24.17	2.55743
24.18	2.5798
24.19	2.57914
24.2	2.54724
24.21	2.51993
24.22	2.54756
24.23	2.56928
24.24	2.5673
24.25	2.54329
24.26	2.53934
24.27	2.54987
24.28	2.54033
24.29	2.54724
24.3	2.53046
24.31	2.53868
24.32	2.58671
24.33	2.54789
24.34	2.53375
24.35	2.53375
24.36	2.56303
24.37	2.53934
24.38	2.53638
24.39	2.55546
24.4	2.55085
24.41	2.54921
24.42	2.5275
24.43	2.54362
24.44	2.55447
24.45	2.55612
24.46	2.55414
24.47	2.55447
24.48	2.53638
24.49	2.5252
24.5	2.54921
24.51	2.54954
24.52	2.56007
24.53	2.57355
24.54	2.55283
24.55	2.56171
24.56	2.56105
24.57	2.54987
24.58	2.53079
24.59	2.56862
24.6	2.5571
24.61	2.54296
24.62	2.54526
24.63	2.5377
24.64	2.53704
24.65	2.54954
24.66	2.55579
24.67	2.57783
24.68	2.54296
24.69	2.54329
24.7	2.55447
24.71	2.54131
24.72	2.53309
24.73	2.56039
24.74	2.57487
24.75	2.5525
24.76	2.56171
24.77	2.52191
24.78	2.56763
24.79	2.56993
24.8	2.56204
24.81	2.5548
24.82	2.53802
24.83	2.54164
24.84	2.5571
24.85	2.55316
24.86	2.54263
24.87	2.56105
24.88	2.56796
24.89	2.53145
24.9	2.54263
24.91	2.56237
24.92	2.54822
24.93	2.54724
24.94	2.54263
24.95	2.54329
24.96	2.54099
24.97	2.55513
24.98	2.55941
24.99	2.57553
25	2.55447
25.01	2.50644
25.02	2.53737
25.03	2.55217
25.04	2.55447
25.05	2.54987
25.06	2.56434
25.07	2.56599
25.08	2.57914
25.09	2.57816
25.1	2.56138
25.11	2.53342
25.12	2.52158
25.13	2.53046
25.14	2.53704
25.15	2.52191
25.16	2.56105
25.17	2.56204
25.18	2.55217
25.19	2.53671
25.2	2.55941
25.21	2.56533
25.22	2.57026
25.23	2.52947
25.24	2.53408
25.25	2.56171
25.26	2.54921
25.27	2.54789
25.28	2.55414
25.29	2.55053
25.3	2.57454
25.31	2.54197
25.32	2.52552
25.33	2.56072
25.34	2.54724
25.35	2.53342
25.36	2.56566
25.37	2.52849
25.38	2.53375
25.39	2.5377
25.4	2.56303
25.41	2.56829
25.42	2.54658
25.43	2.54066
25.44	2.53572
25.45	2.55217
25.46	2.54691
25.47	2.53375
25.48	2.58737
25.49	2.54033
25.5	2.54428
25.51	2.52585
25.52	2.56204
25.53	2.54756
25.54	2.56697
25.55	2.53737
25.56	2.54263
25.57	2.54263
25.58	2.56105
25.59	2.54066
25.6	2.54526
25.61	2.55875
25.62	2.55546
25.63	2.54099
25.64	2.5423
25.65	2.54263
25.66	2.56007
25.67	2.56007
25.68	2.54395
25.69	2.52947
25.7	2.53013
25.71	2.57158
25.72	2.53572
25.73	2.52684
25.74	2.53046
25.75	2.55612
25.76	2.54033
25.77	2.53967
25.78	2.5571
25.79	2.53441
25.8	2.54724
25.81	2.54526
25.82	2.52816
25.83	2.52849
25.84	2.53934
25.85	2.58013
25.86	2.54822
25.87	2.53605
25.88	2.52618
25.89	2.56599
25.9	2.56829
25.91	2.55941
25.92	2.53802
25.93	2.55349
25.94	2.54296
25.95	2.54329
25.96	2.52092
25.97	2.54395
25.98	2.55776
25.99	2.54822
26	2.56138
26.01	2.56533
26.02	2.54428
26.03	2.54592
26.04	2.53177
26.05	2.52585
26.06	2.54822
26.07	2.56993
26.08	2.56796
26.09	2.56862
26.1	2.55875
26.11	2.56434
26.12	2.56829
26.13	2.55118
26.14	2.53276
26.15	2.55151
26.16	2.53079
26.17	2.57026
26.18	2.54164
26.19	2.5446
26.2	2.53309
26.21	2.55678
26.22	2.56171
26.23	2.55875
26.24	2.51993
26.25	2.57684
26.26	2.53901
26.27	2.565
26.28	2.58408
26.29	2.56829
26.3	2.52717
26.31	2.515
26.32	2.53539
26.33	2.54987
26.34	2.55151
26.35	2.53408
26.36	2.55743
26.37	2.52816
26.38	2.56928
26.39	2.56072
26.4	2.58079
26.41	2.51829
26.42	2.53441
26.43	2.53112
26.44	2.53276
26.45	2.55085
26.46	2.56039
26.47	2.56993
26.48	2.5877
26.49	2.5627
26.5	2.53671
26.51	2.54395
26.52	2.53177
26.53	2.57158
26.54	2.54822
26.55	2.5423
26.56	2.52914
26.57	2.54691
26.58	2.53737
26.59	2.54329
26.6	2.53934
26.61	2.5377
26.62	2.54329
26.63	2.54592
26.64	2.5446
26.65	2.57355
26.66	2.55118
26.67	2.52388
26.68	2.52026
26.69	2.57059
26.7	2.57125
26.71	2.55809
26.72	2.52223
26.73	2.54724
26.74	2.54592
26.75	2.53506
26.76	2.5502
26.77	2.55085
26.78	2.56303
26.79	2.55184
26.8	2.54691
26.81	2.56138
26.82	2.53276
26.83	2.57059
26.84	2.5673
26.85	2.54954
26.86	2.52552
26.87	2.5502
26.88	2.53802
26.89	2.54855
26.9	2.56467
26.91	2.55447
26.92	2.53441
26.93	2.53868
26.94	2.53441
26.95	2.5173
26.96	2.53342
26.97	2.5423
26.98	2.53342
26.99	2.5548
27	2.56303
27.01	2.53309
27.02	2.57914
27.03	2.56007
27.04	2.5252
27.05	2.55842
27.06	2.5696
27.07	2.55151
27.08	2.53506
27.09	2.56335
27.1	2.58408
27.11	2.58309
27.12	2.56138
27.13	2.55053
27.14	2.55283
27.15	2.57388
27.16	2.54724
27.17	2.59066
27.18	2.5673
27.19	2.54362
27.2	2.5423
27.21	2.52585
27.22	2.5321
27.23	2.55776
27.24	2.55974
27.25	2.53243
27.26	2.52816
27.27	2.54921
27.28	2.54099
27.29	2.565
27.3	2.565
27.31	2.53342
27.32	2.5252
27.33	2.54066
27.34	2.5502
27.35	2.53375
27.36	2.55118
27.37	2.57092
27.38	2.57783
27.39	2.53474
27.4	2.53605
27.41	2.52717
27.42	2.54987
27.43	2.53112
27.44	2.55217
27.45	2.54099
27.46	2.5377
27.47	2.52717
27.48	2.51237
27.49	2.53934
27.5	2.55908
27.51	2.52388
27.52	2.53342
27.53	2.52914
27.54	2.55941
27.55	2.53243
27.56	2.54131
27.57	2.53309
27.58	2.57849
27.59	2.5571
27.6	2.55118
27.61	2.53901
27.62	2.56039
27.63	2.54855
27.64	2.54164
27.65	2.54395
27.66	2.53605
27.67	2.54625
27.68	2.53342
27.69	2.53145
27.7	2.5377
27.71	2.51895
27.72	2.52026
27.73	2.52849
27.74	2.51895
27.75	2.56368
27.76	2.53704
27.77	2.53276
27.78	2.54066
27.79	2.55349
27.8	2.52783
27.81	2.53967
27.82	2.56303
27.83	2.54296
27.84	2.54724
27.85	2.55809
27.86	2.5275
27.87	2.54625
27.88	2.55974
27.89	2.56303
27.9	2.54263
27.91	2.56434
27.92	2.53276
27.93	2.52947
27.94	2.50184
27.95	2.55283
27.96	2.53835
27.97	2.55743
27.98	2.57717
27.99	2.54362
28	2.55349
28.01	2.54066
28.02	2.59099
28.03	2.52487
28.04	2.54625
28.05	2.52388
28.06	2.54395
28.07	2.53474
28.08	2.54
28.09	2.55381
28.1	2.53704
28.11	2.53079
28.12	2.55678
28.13	2.56171
28.14	2.56895
28.15	2.54
28.16	2.53967
28.17	2.53967
28.18	2.54197
28.19	2.55579
28.2	2.56335
28.21	2.54099
28.22	2.55875
28.23	2.5548
28.24	2.51566
28.25	2.52783
28.26	2.52158
28.27	2.5548
28.28	2.53704
28.29	2.53934
28.3	2.52914
28.31	2.50941
28.32	2.51664
28.33	2.54493
28.34	2.51335
28.35	2.55053
28.36	2.57092
28.37	2.52059
28.38	2.55908
28.39	2.5423
28.4	2.54526
28.41	2.54263
28.42	2.54987
28.43	2.58276
28.44	2.5275
28.45	2.52059
28.46	2.56829
28.47	2.55776
28.48	2.54428
28.49	2.54164
28.5	2.53276
28.51	2.52158
28.52	2.5321
28.53	2.56368
28.54	2.52717
28.55	2.55908
28.56	2.54921
28.57	2.54625
28.58	2.54526
28.59	2.54526
28.6	2.57026
28.61	2.5752
28.62	2.55349
28.63	2.54987
28.64	2.56632
28.65	2.55217
28.66	2.52322
28.67	2.54164
28.68	2.52487
28.69	2.52585
28.7	2.53934
28.71	2.54428
28.72	2.5446
28.73	2.54987
28.74	2.53638
28.75	2.54987
28.76	2.52881
28.77	2.54855
28.78	2.56566
28.79	2.55053
28.8	2.55053
28.81	2.57322
28.82	2.57882
28.83	2.54099
28.84	2.56467
28.85	2.56895
28.86	2.54395
28.87	2.52651
28.88	2.50348
28.89	2.5377
28.9	2.55151
28.91	2.5446
28.92	2.55283
28.93	2.56204
28.94	2.5548
28.95	2.56171
28.96	2.53112
28.97	2.53868
28.98	2.54428
28.99	2.53572
29	2.52355
29.01	2.51763
29.02	2.53276
29.03	2.52717
29.04	2.54362
29.05	2.51467
29.06	2.51862
29.07	2.55645
29.08	2.57487
29.09	2.54493
29.1	2.53506
29.11	2.54099
29.12	2.56368
29.13	2.54592
29.14	2.56105
29.15	2.5548
29.16	2.54756
29.17	2.55316
29.18	2.5798
29.19	2.54658
29.2	2.55053
29.21	2.52914
29.22	2.51237
29.23	2.53112
29.24	2.52223
29.25	2.5525
29.26	2.58178
29.27	2.56533
29.28	2.5752
29.29	2.55809
29.3	2.51697
29.31	2.53145
29.32	2.55546
29.33	2.54
29.34	2.56599
29.35	2.53967
29.36	2.5423
29.37	2.54263
29.38	2.54921
29.39	2.52487
29.4	2.52684
29.41	2.52322
29.42	2.56237
29.43	2.55579
29.44	2.55447
29.45	2.53309
29.46	2.55645
29.47	2.53375
29.48	2.5298
29.49	2.51993
29.5	2.54
29.51	2.53375
29.52	2.50217
29.53	2.56533
29.54	2.56928
29.55	2.52816
29.56	2.51467
29.57	2.52388
29.58	2.50283
29.59	2.52191
29.6	2.54493
29.61	2.54099
29.62	2.54789
29.63	2.53704
29.64	2.55546
29.65	2.53375
29.66	2.54263
29.67	2.5423
29.68	2.53967
29.69	2.54756
29.7	2.57191
29.71	2.56993
29.72	2.52092
29.73	2.49296
29.74	2.51862
29.75	2.51895
29.76	2.55447
29.77	2.54691
29.78	2.51598
29.79	2.51171
29.8	2.53145
29.81	2.52651
29.82	2.54066
29.83	2.55974
29.84	2.55283
29.85	2.52552
29.86	2.52618
29.87	2.54428
29.88	2.53506
29.89	2.52355
29.9	2.5525
29.91	2.54724
29.92	2.54526
29.93	2.5696
29.94	2.55316
29.95	2.5525
29.96	2.54033
29.97	2.56138
29.98	2.54329
29.99	2.52618
30	2.51566
30.01	2.54921
30.02	2.54954
30.03	2.54888
30.04	2.54987
30.05	2.5173
30.06	2.55118
30.07	2.55414
30.08	2.53671
30.09	2.53112
30.1	2.56171
30.11	2.55118
30.12	2.56599
30.13	2.59132
30.14	2.53342
30.15	2.54033
30.16	2.53243
30.17	2.51302
30.18	2.56105
30.19	2.51401
30.2	2.5196
30.21	2.52322
30.22	2.56007
30.23	2.53112
30.24	2.52289
30.25	2.54888
30.26	2.55184
30.27	2.54822
30.28	2.53375
30.29	2.5377
30.3	2.5571
30.31	2.5298
30.32	2.53638
30.33	2.55085
30.34	2.54855
30.35	2.50151
30.36	2.54493
30.37	2.55151
30.38	2.57355
30.39	2.59197
30.4	2.55612
30.41	2.53079
30.42	2.55447
30.43	2.54428
30.44	2.53309
30.45	2.54263
30.46	2.51796
30.47	2.51829
30.48	2.52849
30.49	2.57914
30.5	2.54263
30.51	2.53802
30.52	2.55053
30.53	2.55414
30.54	2.53079
30.55	2.57322
30.56	2.53145
30.57	2.52783
30.58	2.51368
30.59	2.56664
30.6	2.52585
30.61	2.55743
30.62	2.56763
30.63	2.56467
30.64	2.5377
30.65	2.52849
30.66	2.52355
30.67	2.52618
30.68	2.5196
30.69	2.54526
30.7	2.57125
30.71	2.54099
30.72	2.50381
30.73	2.54263
30.74	2.56303
30.75	2.54756
30.76	2.54756
30.77	2.54822
30.78	2.52059
30.79	2.54033
30.8	2.53704
30.81	2.55316
30.82	2.54296
30.83	2.53243
30.84	2.54263
30.85	2.57224
30.86	2.54428
30.87	2.5525
30.88	2.53145
30.89	2.51467
30.9	2.54
30.91	2.55283
30.92	2.53704
30.93	2.54888
30.94	2.54395
30.95	2.57816
30.96	2.53506
30.97	2.53309
30.98	2.56335
30.99	2.55151
31	2.54131
31.01	2.56862
31.02	2.55184
31.03	2.52849
31.04	2.53112
31.05	2.5275
31.06	2.54164
31.07	2.55283
31.08	2.54296
31.09	2.52585
31.1	2.54428
31.11	2.55546
31.12	2.53605
31.13	2.53605
31.14	2.53342
31.15	2.52487
31.16	2.54658
31.17	2.56632
31.18	2.54263
31.19	2.5446
31.2	2.55579
31.21	2.54526
31.22	2.5321
31.23	2.53802
31.24	2.53441
31.25	2.54724
31.26	2.53079
31.27	2.54428
31.28	2.53901
31.29	2.55974
31.3	2.51335
31.31	2.55414
31.32	2.55118
31.33	2.52355
31.34	2.51434
31.35	2.5502
31.36	2.52783
31.37	2.5252
31.38	2.515
31.39	2.52651
31.4	2.54329
31.41	2.53441
31.42	2.5298
31.43	2.53704
31.44	2.53441
31.45	2.53177
31.46	2.55941
31.47	2.54329
31.48	2.53177
31.49	2.54197
31.5	2.5571
31.51	2.55053
31.52	2.54724
31.53	2.54099
31.54	2.53605
31.55	2.55349
31.56	2.56632
31.57	2.55053
31.58	2.54756
31.59	2.55842
31.6	2.56204
31.61	2.5446
31.62	2.55316
31.63	2.54855
31.64	2.56796
31.65	2.55776
31.66	2.54164
31.67	2.56237
31.68	2.53145
31.69	2.51204
31.7	2.5275
31.71	2.51138
31.72	2.56533
31.73	2.54921
31.74	2.54724
31.75	2.5275
31.76	2.54756
31.77	2.53177
31.78	2.56763
31.79	2.54033
31.8	2.55546
31.81	2.52947
31.82	2.52191
31.83	2.56105
31.84	2.51631
31.85	2.54
31.86	2.55776
31.87	2.53408
31.88	2.55151
31.89	2.56105
31.9	2.57224
31.91	2.53441
31.92	2.52191
31.93	2.51895
31.94	2.54164
31.95	2.52947
31.96	2.54164
31.97	2.57454
31.98	2.52454
31.99	2.54197
32	2.53967
32.01	2.54329
32.02	2.56007
32.03	2.53737
32.04	2.52125
32.05	2.52454
32.06	2.54855
32.07	2.50973
32.08	2.52454
32.09	2.55743
32.1	2.52651
32.11	2.53474
32.12	2.53605
32.13	2.50184
32.14	2.53539
32.15	2.53013
32.16	2.53013
32.17	2.54691
32.18	2.56401
32.19	2.55184
32.2	2.54329
32.21	2.52322
32.22	2.53474
32.23	2.53276
32.24	2.55184
32.25	2.52717
32.26	2.53737
32.27	2.53046
32.28	2.55447
32.29	2.52421
32.3	2.53375
32.31	2.54724
32.32	2.54395
32.33	2.51598
32.34	2.52849
32.35	2.54263
32.36	2.53868
32.37	2.51434
32.38	2.53835
32.39	2.55743
32.4	2.55118
32.41	2.53046
32.42	2.54888
32.43	2.54855
32.44	2.54625
32.45	2.54921
32.46	2.55151
32.47	2.57026
32.48	2.56763
32.49	2.52947
32.5	2.54559
32.51	2.55349
32.52	2.56566
32.53	2.52289
32.54	2.54131
32.55	2.52092
32.56	2.54099
32.57	2.51862
32.58	2.53934
32.59	2.53901
32.6	2.53177
32.61	2.51434
32.62	2.52026
32.63	2.52816
32.64	2.54131
32.65	2.55053
32.66	2.56138
32.67	2.55447
32.68	2.55151
32.69	2.55875
32.7	2.55612
32.71	2.55579
32.72	2.56039
32.73	2.57816
32.74	2.54658
32.75	2.53375
32.76	2.53835
32.77	2.54296
32.78	2.52552
32.79	2.52322
32.8	2.51664
32.81	2.515
32.82	2.56237
32.83	2.56829
32.84	2.55612
32.85	2.55546
32.86	2.55645
32.87	2.56993
32.88	2.53802
32.89	2.55579
32.9	2.56467
32.91	2.55941
32.92	2.54987
32.93	2.54756
32.94	2.51566
32.95	2.52092
32.96	2.53177
32.97	2.52783
32.98	2.55513
32.99	2.51993
33	2.50875
33.01	2.51631
33.02	2.55447
33.03	2.60349
33.04	2.58507
33.05	2.57026
33.06	2.56599
33.07	2.54855
33.08	2.55809
33.09	2.58901
33.1	2.54329
33.11	2.55151
33.12	2.56632
33.13	2.57717
33.14	2.5446
33.15	2.55776
33.16	2.57586
33.17	2.55546
33.18	2.55381
33.19	2.50677
33.2	2.5275
33.21	2.53079
33.22	2.54954
33.23	2.50579
33.24	2.54428
33.25	2.52256
33.26	2.52355
33.27	2.51895
33.28	2.53441
33.29	2.51335
33.3	2.52914
33.31	2.55349
33.32	2.50908
33.33	2.52125
33.34	2.55381
33.35	2.50316
33.36	2.53835
33.37	2.55349
33.38	2.53671
33.39	2.55381
33.4	2.54099
33.41	2.5548
33.42	2.56303
33.43	2.53441
33.44	2.5548
33.45	2.54987
33.46	2.56697
33.47	2.55776
33.48	2.55941
33.49	2.54296
33.5	2.53112
33.51	2.55349
33.52	2.57125
33.53	2.51072
33.54	2.50118
33.55	2.51664
33.56	2.5548
33.57	2.5571
33.58	2.53342
33.59	2.52191
33.6	2.51335
33.61	2.51138
33.62	2.51105
33.63	2.5673
33.64	2.55349
33.65	2.55085
33.66	2.51533
33.67	2.54066
33.68	2.54296
33.69	2.56467
33.7	2.54526
33.71	2.54197
33.72	2.57421
33.73	2.56895
33.74	2.56993
33.75	2.55645
33.76	2.54592
33.77	2.53605
33.78	2.5252
33.79	2.52585
33.8	2.52158
33.81	2.54592
33.82	2.55809
33.83	2.50941
33.84	2.52618
33.85	2.5321
33.86	2.54066
33.87	2.54954
33.88	2.56303
33.89	2.51829
33.9	2.5071
33.91	2.54263
33.92	2.56895
33.93	2.57092
33.94	2.5627
33.95	2.53638
33.96	2.51664
33.97	2.55283
33.98	2.54296
33.99	2.5377
34	2.55645
34.01	2.56401
34.02	2.54822
34.03	2.53835
34.04	2.54263
34.05	2.55743
34.06	2.54131
34.07	2.51697
34.08	2.53046
34.09	2.56533
34.1	2.53013
34.11	2.52059
34.12	2.54099
34.13	2.54493
34.14	2.52552
34.15	2.5525
34.16	2.53243
34.17	2.53276
34.18	2.53967
34.19	2.54263
34.2	2.57322
34.21	2.56237
34.22	2.55447
34.23	2.54855
34.24	2.52421
34.25	2.53342
34.26	2.55776
34.27	2.55678
34.28	2.53605
34.29	2.55118
34.3	2.54131
34.31	2.54592
34.32	2.54658
34.33	2.56007
34.34	2.57882
34.35	2.53408
34.36	2.53868
34.37	2.53835
34.38	2.56039
34.39	2.54691
34.4	2.49987
34.41	2.52717
34.42	2.52585
34.43	2.56763
34.44	2.52092
34.45	2.5377
34.46	2.51533
34.47	2.5571
34.48	2.54888
34.49	2.5525
34.5	2.52618
34.51	2.52322
34.52	2.52618
34.53	2.55645
34.54	2.53276
34.55	2.53177
34.56	2.54888
34.57	2.54428
34.58	2.5798
34.59	2.53868
34.6	2.53704
34.61	2.565
34.62	2.54954
34.63	2.57388
34.64	2.58638
34.65	2.55447
34.66	2.54987
34.67	2.55085
34.68	2.55381
34.69	2.53309
34.7	2.53375
34.71	2.53638
34.72	2.5423
34.73	2.57191
34.74	2.55974
34.75	2.51006
34.76	2.53013
34.77	2.51631
34.78	2.53704
34.79	2.55678
34.8	2.53276
34.81	2.53046
34.82	2.52487
34.83	2.52289
34.84	2.53013
34.85	2.53835
34.86	2.52914
34.87	2.54263
34.88	2.53967
34.89	2.52816
34.9	2.52059
34.91	2.57158
34.92	2.56368
34.93	2.52552
34.94	2.53408
34.95	2.53737
34.96	2.5423
34.97	2.51664
34.98	2.53474
34.99	2.54625
35	2.52914
35.01	2.56434
35.02	2.54395
35.03	2.53605
35.04	2.54197
35.05	2.5548
35.06	2.51927
35.07	2.52849
35.08	2.51006
35.09	2.5321
35.1	2.54362
35.11	2.54559
35.12	2.53704
35.13	2.52158
35.14	2.51335
35.15	2.52223
35.16	2.53276
35.17	2.52881
35.18	2.55184
35.19	2.53704
35.2	2.54789
35.21	2.54395
35.22	2.54493
35.23	2.56303
35.24	2.53967
35.25	2.52421
35.26	2.54724
35.27	2.56928
35.28	2.56072
35.29	2.51467
35.3	2.55053
35.31	2.56895
35.32	2.53901
35.33	2.52158
35.34	2.53342
35.35	2.55513
35.36	2.54131
35.37	2.54526
35.38	2.55776
35.39	2.54263
35.4	2.51796
35.41	2.54691
35.42	2.56566
35.43	2.52881
35.44	2.52816
35.45	2.55381
35.46	2.53868
35.47	2.52092
35.48	2.53737
35.49	2.51927
35.5	2.54625
35.51	2.54691
35.52	2.54691
35.53	2.53013
35.54	2.54592
35.55	2.53177
35.56	2.57026
35.57	2.56204
35.58	2.54428
35.59	2.53671
35.6	2.55645
35.61	2.53737
35.62	2.55316
35.63	2.52223
35.64	2.51927
35.65	2.53375
35.66	2.52223
35.67	2.52816
35.68	2.56335
35.69	2.54131
35.7	2.56039
35.71	2.54395
35.72	2.5298
35.73	2.57651
35.74	2.53276
35.75	2.52223
35.76	2.52816
35.77	2.52816
35.78	2.54888
35.79	2.53704
35.8	2.55118
35.81	2.55941
35.82	2.55513
35.83	2.53671
35.84	2.51664
35.85	2.50973
35.86	2.54099
35.87	2.52388
35.88	2.56138
35.89	2.52717
35.9	2.51533
35.91	2.52552
35.92	2.54099
35.93	2.54428
35.94	2.54066
35.95	2.55612
35.96	2.53638
35.97	2.53441
35.98	2.51434
35.99	2.55941
36	2.52125
36.01	2.52158
36.02	2.53112
36.03	2.53177
36.04	2.53802
36.05	2.48704
36.06	2.51895
36.07	2.55776
36.08	2.55941
36.09	2.5571
36.1	2.54921
36.11	2.53375
36.12	2.55809
36.13	2.56467
36.14	2.54691
36.15	2.55184
36.16	2.53605
36.17	2.5196
36.18	2.54855
36.19	2.54131
36.2	2.53802
36.21	2.53243
36.22	2.53243
36.23	2.51237
36.24	2.55283
36.25	2.54855
36.26	2.5252
36.27	2.54066
36.28	2.55118
36.29	2.58276
36.3	2.5321
36.31	2.52849
36.32	2.53375
36.33	2.51204
36.34	2.53671
36.35	2.54263
36.36	2.53177
36.37	2.56862
36.38	2.53441
36.39	2.53802
36.4	2.54625
36.41	2.52454
36.42	2.54164
36.43	2.54756
36.44	2.53013
36.45	2.54921
36.46	2.53013
36.47	2.54954
36.48	2.50941
36.49	2.53967
36.5	2.53276
36.51	2.54691
36.52	2.52947
36.53	2.54
36.54	2.57059
36.55	2.54395
36.56	2.54
36.57	2.52651
36.58	2.52421
36.59	2.55776
36.6	2.54131
36.61	2.50316
36.62	2.52158
36.63	2.52816
36.64	2.55579
36.65	2.48901
36.66	2.52289
36.67	2.54
36.68	2.54658
36.69	2.55513
36.7	2.55283
36.71	2.52191
36.72	2.53572
36.73	2.51434
36.74	2.51631
36.75	2.5321
36.76	2.51039
36.77	2.53868
36.78	2.53276
36.79	2.52914
36.8	2.54987
36.81	2.54263
36.82	2.53704
36.83	2.50973
36.84	2.54526
36.85	2.55908
36.86	2.55316
36.87	2.53309
36.88	2.5127
36.89	2.52684
36.9	2.52914
36.91	2.52947
36.92	2.56204
36.93	2.52487
36.94	2.52059
36.95	2.5275
36.96	2.55151
36.97	2.565
36.98	2.52651
36.99	2.53638
37	2.53079
37.01	2.5502
37.02	2.52881
37.03	2.5446
37.04	2.51138
37.05	2.53079
37.06	2.54691
37.07	2.5252
37.08	2.54197
37.09	2.54197
37.1	2.54099
37.11	2.50875
37.12	2.53868
37.13	2.51566
37.14	2.51039
37.15	2.53605
37.16	2.5252
37.17	2.54296
37.18	2.55513
37.19	2.54559
37.2	2.54658
37.21	2.56862
37.22	2.56599
37.23	2.57388
37.24	2.56763
37.25	2.54822
37.26	2.5298
37.27	2.53046
37.28	2.53013
37.29	2.55809
37.3	2.53539
37.31	2.52256
37.32	2.51895
37.33	2.56862
37.34	2.57783
37.35	2.55908
37.36	2.56533
37.37	2.5275
37.38	2.52454
37.39	2.53506
37.4	2.53506
37.41	2.55579
37.42	2.52289
37.43	2.52552
37.44	2.54099
37.45	2.53145
37.46	2.5275
37.47	2.51138
37.48	2.52125
37.49	2.54724
37.5	2.52881
37.51	2.50348
37.52	2.55283
37.53	2.56862
37.54	2.54789
37.55	2.50973
37.56	2.53638
37.57	2.53013
37.58	2.52487
37.59	2.54
37.6	2.51927
37.61	2.54099
37.62	2.5502
37.63	2.54362
37.64	2.52256
37.65	2.55184
37.66	2.5571
37.67	2.57355
37.68	2.5673
37.69	2.58408
37.7	2.57684
37.71	2.53934
37.72	2.54033
37.73	2.52059
37.74	2.55974
37.75	2.53967
37.76	2.53671
37.77	2.54099
37.78	2.55743
37.79	2.53835
37.8	2.53967
37.81	2.5446
37.82	2.56138
37.83	2.54822
37.84	2.53638
37.85	2.54
37.86	2.54921
37.87	2.52881
37.88	2.53013
37.89	2.50217
37.9	2.51237
37.91	2.54131
37.92	2.55085
37.93	2.55283
37.94	2.53276
37.95	2.53967
37.96	2.52421
37.97	2.55283
37.98	2.565
37.99	2.5377
38	2.50447
38.01	2.52849
38.02	2.53046
38.03	2.55184
38.04	2.51598
38.05	2.52125
38.06	2.51368
38.07	2.54625
38.08	2.55875
38.09	2.5377
38.1	2.5571
38.11	2.53737
38.12	2.5252
38.13	2.53441
38.14	2.5321
38.15	2.52421
38.16	2.53638
38.17	2.54954
38.18	2.51993
38.19	2.56928
38.2	2.55809
38.21	2.53802
38.22	2.55085
38.23	2.53638
38.24	2.5571
38.25	2.52322
38.26	2.52947
38.27	2.57191
38.28	2.58309
38.29	2.54033
38.3	2.52421
38.31	2.52947
38.32	2.57454
38.33	2.5321
38.34	2.53967
38.35	2.51039
38.36	2.5071
38.37	2.57618
38.38	2.57355
38.39	2.54559
38.4	2.54131
38.41	2.52783
38.42	2.54428
38.43	2.52223
38.44	2.55546
38.45	2.54263
38.46	2.53868
38.47	2.53605
38.48	2.5252
38.49	2.515
38.5	2.4844
38.51	2.53539
38.52	2.5321
38.53	2.55974
38.54	2.49065
38.55	2.53342
38.56	2.53638
38.57	2.55546
38.58	2.52881
38.59	2.53539
38.6	2.55118
38.61	2.5321
38.62	2.55447
38.63	2.55743
38.64	2.51368
38.65	2.53934
38.66	2.54822
38.67	2.56467
38.68	2.55776
38.69	2.53079
38.7	2.51697
38.71	2.53276
38.72	2.51237
38.73	2.51401
38.74	2.50414
38.75	2.55447
38.76	2.55743
38.77	2.54197
38.78	2.52684
38.79	2.56368
38.8	2.5252
38.81	2.53309
38.82	2.53243
38.83	2.565
38.84	2.56237
38.85	2.52125
38.86	2.51895
38.87	2.53901
38.88	2.55184
38.89	2.52388
38.9	2.53013
38.91	2.53572
38.92	2.55316
38.93	2.54592
38.94	2.53046
38.95	2.55217
38.96	2.54164
38.97	2.53605
38.98	2.51927
38.99	2.54164
39	2.54691
39.01	2.51796
39.02	2.57158
39.03	2.53539
39.04	2.51862
39.05	2.52717
39.06	2.53046
39.07	2.56632
39.08	2.56204
39.09	2.55546
39.1	2.56697
39.11	2.52849
39.12	2.54592
39.13	2.56368
39.14	2.55085
39.15	2.53342
39.16	2.52092
39.17	2.53046
39.18	2.54789
39.19	2.5423
39.2	2.56007
39.21	2.51434
39.22	2.53802
39.23	2.56138
39.24	2.54756
39.25	2.54756
39.26	2.52355
39.27	2.49921
39.28	2.53079
39.29	2.56632
39.3	2.56401
39.31	2.55776
39.32	2.54164
39.33	2.52487
39.34	2.54691
39.35	2.54362
39.36	2.52618
39.37	2.52289
39.38	2.5423
39.39	2.56303
39.4	2.54855
39.41	2.55151
39.42	2.57388
39.43	2.54263
39.44	2.56467
39.45	2.53737
39.46	2.52816
39.47	2.5377
39.48	2.5377
39.49	2.54658
39.5	2.53868
39.51	2.53868
39.52	2.53046
39.53	2.53967
39.54	2.5252
39.55	2.51105
39.56	2.53868
39.57	2.54329
39.58	2.53539
39.59	2.52289
39.6	2.51401
39.61	2.54131
39.62	2.52849
39.63	2.54099
39.64	2.51697
39.65	2.53276
39.66	2.55118
39.67	2.52355
39.68	2.53605
39.69	2.5423
39.7	2.56862
39.71	2.54197
39.72	2.54
39.73	2.5423
39.74	2.53671
39.75	2.54724
39.76	2.53013
39.77	2.53046
39.78	2.53934
39.79	2.53243
39.8	2.51467
39.81	2.51927
39.82	2.53967
39.83	2.55217
39.84	2.54921
39.85	2.56993
39.86	2.53046
39.87	2.49822
39.88	2.5377
39.89	2.51566
39.9	2.53572
39.91	2.56566
39.92	2.55316
39.93	2.58342
39.94	2.53375
39.95	2.54592
39.96	2.54296
39.97	2.54526
39.98	2.54789
39.99	2.54395
40	2.51237
40.01	2.53671
40.02	2.52717
40.03	2.54197
40.04	2.50085
40.05	2.53605
40.06	2.54625
40.07	2.52881
40.08	2.53802
40.09	2.57026
40.1	2.51927
40.11	2.55842
40.12	2.57289
40.13	2.57882
40.14	2.53112
40.15	2.52322
40.16	2.55678
40.17	2.58803
40.18	2.55151
40.19	2.57092
40.2	2.52684
40.21	2.50743
40.22	2.52585
40.23	2.53046
40.24	2.5446
40.25	2.52684
40.26	2.5252
40.27	2.54033
40.28	2.54033
40.29	2.51006
40.3	2.57289
40.31	2.53572
40.32	2.54263
40.33	2.53145
40.34	2.57257
40.35	2.53967
40.36	2.515
40.37	2.51664
40.38	2.54625
40.39	2.55546
40.4	2.51566
40.41	2.53868
40.42	2.53539
40.43	2.53342
40.44	2.52585
40.45	2.54658
40.46	2.54362
40.47	2.5627
40.48	2.52289
40.49	2.53671
40.5	2.53802
40.51	2.56072
40.52	2.54789
40.53	2.53177
40.54	2.53539
40.55	2.5571
40.56	2.53441
40.57	2.55842
40.58	2.55776
40.59	2.55447
40.6	2.54987
40.61	2.53638
40.62	2.55151
40.63	2.53243
40.64	2.53013
40.65	2.50875
40.66	2.53704
40.67	2.55085
40.68	2.53934
40.69	2.52651
40.7	2.53243
40.71	2.5548
40.72	2.52388
40.73	2.54033
40.74	2.57092
40.75	2.53506
40.76	2.5127
40.77	2.50612
40.78	2.54197
40.79	2.50546
40.8	2.52355
40.81	2.54197
40.82	2.56204
40.83	2.5423
40.84	2.52881
40.85	2.53572
40.86	2.51302
40.87	2.5173
40.88	2.53638
40.89	2.50019
40.9	2.52421
40.91	2.50316
40.92	2.54329
40.93	2.5673
40.94	2.52322
40.95	2.51993
40.96	2.54493
40.97	2.55381
40.98	2.5423
40.99	2.54197
41	2.54987
41.01	2.54855
41.02	2.51598
41.03	2.53145
41.04	2.50283
41.05	2.53671
41.06	2.51467
41.07	2.54625
41.08	2.50776
41.09	2.51138
41.1	2.50052
41.11	2.53934
41.12	2.54756
41.13	2.55776
41.14	2.54822
41.15	2.53408
41.16	2.54164
41.17	2.53605
41.18	2.50743
41.19	2.49855
41.2	2.53408
41.21	2.53342
41.22	2.51895
41.23	2.52947
41.24	2.53934
41.25	2.52651
41.26	2.55381
41.27	2.54197
41.28	2.52816
41.29	2.53934
41.3	2.55645
41.31	2.54592
41.32	2.56862
41.33	2.54493
41.34	2.54691
41.35	2.53309
41.36	2.54164
41.37	2.53704
41.38	2.55414
41.39	2.52618
41.4	2.55118
41.41	2.54954
41.42	2.53704
41.43	2.54099
41.44	2.55151
41.45	2.5298
41.46	2.52881
41.47	2.5502
41.48	2.54296
41.49	2.52355
41.5	2.53539
41.51	2.51566
41.52	2.53934
41.53	2.50842
41.54	2.52717
41.55	2.5502
41.56	2.53967
41.57	2.5423
41.58	2.51993
41.59	2.57125
41.6	2.55645
41.61	2.55612
41.62	2.54197
41.63	2.55908
41.64	2.55645
41.65	2.58572
41.66	2.54329
41.67	2.53276
41.68	2.55974
41.69	2.56796
41.7	2.53737
41.71	2.54789
41.72	2.52388
41.73	2.54855
41.74	2.55875
41.75	2.55151
41.76	2.53802
41.77	2.54658
41.78	2.51664
41.79	2.52816
41.8	2.52585
41.81	2.5275
41.82	2.52256
41.83	2.54164
41.84	2.55513
41.85	2.51237
41.86	2.49855
41.87	2.55381
41.88	2.52191
41.89	2.49098
41.9	2.53112
41.91	2.55743
41.92	2.58704
41.93	2.55546
41.94	2.5446
41.95	2.5548
41.96	2.53408
41.97	2.54099
41.98	2.5252
41.99	2.54526
42	2.55085
42.01	2.52816
42.02	2.53638
42.03	2.56138
42.04	2.5321
42.05	2.52454
42.06	2.52849
42.07	2.54625
42.08	2.55217
42.09	2.51664
42.1	2.5252
42.11	2.53079
42.12	2.56204
42.13	2.54362
42.14	2.54428
42.15	2.51533
42.16	2.52059
42.17	2.51467
42.18	2.51039
42.19	2.55085
42.2	2.54526
42.21	2.54987
42.22	2.56303
42.23	2.52914
42.24	2.52191
42.25	2.51302
42.26	2.54724
42.27	2.54559
42.28	2.51664
42.29	2.54395
42.3	2.52256
42.31	2.52322
42.32	2.5525
42.33	2.52552
42.34	2.50612
42.35	2.49954
42.36	2.51204
42.37	2.54395
42.38	2.53967
42.39	2.52421
42.4	2.53967
42.41	2.5275
42.42	2.51895
42.43	2.54822
42.44	2.54921
42.45	2.54625
42.46	2.56237
42.47	2.56796
42.48	2.53309
42.49	2.52914
42.5	2.51434
42.51	2.50217
42.52	2.55842
42.53	2.54756
42.54	2.55447
42.55	2.53671
42.56	2.53934
42.57	2.53934
42.58	2.51631
42.59	2.5423
42.6	2.5252
42.61	2.55283
42.62	2.55283
42.63	2.54395
42.64	2.54428
42.65	2.55842
42.66	2.5446
42.67	2.52256
42.68	2.53309
42.69	2.55447
42.7	2.55316
42.71	2.53967
42.72	2.55381
42.73	2.53737
42.74	2.53309
42.75	2.51631
42.76	2.53013
42.77	2.53835
42.78	2.5252
42.79	2.49822
42.8	2.54855
42.81	2.56335
42.82	2.55875
42.83	2.53408
42.84	2.53868
42.85	2.54625
42.86	2.52783
42.87	2.54099
42.88	2.565
42.89	2.54559
42.9	2.53967
42.91	2.53868
42.92	2.56335
42.93	2.53441
42.94	2.52618
42.95	2.52388
42.96	2.53572
42.97	2.52651
42.98	2.51829
42.99	2.53177
43	2.57289
43.01	2.55974
43.02	2.5446
43.03	2.52618
43.04	2.53474
43.05	2.53671
43.06	2.52552
43.07	2.5377
43.08	2.53638
43.09	2.55316
43.1	2.51829
43.11	2.55612
43.12	2.54329
43.13	2.55875
43.14	2.5798
43.15	2.51566
43.16	2.5275
43.17	2.51796
43.18	2.55053
43.19	2.50776
43.2	2.51895
43.21	2.53506
43.22	2.51533
43.23	2.51434
43.24	2.52816
43.25	2.55151
43.26	2.54131
43.27	2.53276
43.28	2.50809
43.29	2.50085
43.3	2.55414
43.31	2.56303
43.32	2.53112
43.33	2.52125
43.34	2.53901
43.35	2.54197
43.36	2.54822
43.37	2.53474
43.38	2.55151
43.39	2.52947
43.4	2.56533
43.41	2.55546
43.42	2.53802
43.43	2.52618
43.44	2.5525
43.45	2.55579
43.46	2.52289
43.47	2.55513
43.48	2.5502
43.49	2.51039
43.5	2.5275
43.51	2.54296
43.52	2.51533
43.53	2.54395
43.54	2.52717
43.55	2.54033
43.56	2.52289
43.57	2.50743
43.58	2.54724
43.59	2.53079
43.6	2.55612
43.61	2.55546
43.62	2.51895
43.63	2.53408
43.64	2.57586
43.65	2.55151
43.66	2.54691
43.67	2.51598
43.68	2.54296
43.69	2.53441
43.7	2.52125
43.71	2.53967
43.72	2.53375
43.73	2.53375
43.74	2.53408
43.75	2.54
43.76	2.53704
43.77	2.55908
43.78	2.53342
43.79	2.5127
43.8	2.5446
43.81	2.55842
43.82	2.56632
43.83	2.53967
43.84	2.5446
43.85	2.54592
43.86	2.53474
43.87	2.51566
43.88	2.51204
43.89	2.52684
43.9	2.55678
43.91	2.54263
43.92	2.51927
43.93	2.52289
43.94	2.57026
43.95	2.54099
43.96	2.52092
43.97	2.53408
43.98	2.5127
43.99	2.51664
44	2.5275
44.01	2.52355
44.02	2.52454
44.03	2.53835
44.04	2.55053
44.05	2.5627
44.06	2.52881
44.07	2.54855
44.08	2.55678
44.09	2.53276
44.1	2.52125
44.11	2.53013
44.12	2.53967
44.13	2.52322
44.14	2.52651
44.15	2.52388
44.16	2.55842
44.17	2.56204
44.18	2.52717
44.19	2.53638
44.2	2.53802
44.21	2.53835
44.22	2.56434
44.23	2.52947
44.24	2.51105
44.25	2.53375
44.26	2.515
44.27	2.52421
44.28	2.55349
44.29	2.51302
44.3	2.52092
44.31	2.53276
44.32	2.54987
44.33	2.55085
44.34	2.54625
44.35	2.5321
44.36	2.54428
44.37	2.54954
44.38	2.5173
44.39	2.51566
44.4	2.53802
44.41	2.53704
44.42	2.54987
44.43	2.52191
44.44	2.51105
44.45	2.54888
44.46	2.55908
44.47	2.53342
44.48	2.5525
44.49	2.5275
44.5	2.55941
44.51	2.52388
44.52	2.51204
44.53	2.56368
44.54	2.50283
44.55	2.49296
44.56	2.50184
44.57	2.53506
44.58	2.53013
44.59	2.5321
44.6	2.54131
44.61	2.51368
44.62	2.53177
44.63	2.54263
44.64	2.53704
44.65	2.53145
44.66	2.52059
44.67	2.54395
44.68	2.54428
44.69	2.55381
44.7	2.52487
44.71	2.54395
44.72	2.55349
44.73	2.52651
44.74	2.5502
44.75	2.54066
44.76	2.5502
44.77	2.53868
44.78	2.53243
44.79	2.54987
44.8	2.54164
44.81	2.53638
44.82	2.54296
44.83	2.51631
44.84	2.53408
44.85	2.53704
44.86	2.48506
44.87	2.50908
44.88	2.53967
44.89	2.53177
44.9	2.53441
44.91	2.53079
44.92	2.54428
44.93	2.53704
44.94	2.54888
44.95	2.55118
44.96	2.50941
44.97	2.52322
44.98	2.51631
44.99	2.54395
45	2.50842
45.01	2.52684
45.02	2.50184
45.03	2.52026
45.04	2.51533
45.05	2.52783
45.06	2.52881
45.07	2.51993
45.08	2.52651
45.09	2.53145
45.1	2.52717
45.11	2.51598
45.12	2.52421
45.13	2.54855
45.14	2.55217
45.15	2.52289
45.16	2.52618
45.17	2.48572
45.18	2.53276
45.19	2.52881
45.2	2.56303
45.21	2.54691
45.22	2.54855
45.23	2.53506
45.24	2.54428
45.25	2.57125
45.26	2.53408
45.27	2.54296
45.28	2.52881
45.29	2.53112
45.3	2.52026
45.31	2.53737
45.32	2.5196
45.33	2.54724
45.34	2.55085
45.35	2.54329
45.36	2.54756
45.37	2.54954
45.38	2.52914
45.39	2.54855
45.4	2.54592
45.41	2.55447
45.42	2.51631
45.43	2.54756
45.44	2.54263
45.45	2.54164
45.46	2.52717
45.47	2.55513
45.48	2.56237
45.49	2.53079
45.5	2.53046
45.51	2.49987
45.52	2.52092
45.53	2.5298
45.54	2.51533
45.55	2.51171
45.56	2.52783
45.57	2.53967
45.58	2.51796
45.59	2.51237
45.6	2.52191
45.61	2.51763
45.62	2.53441
45.63	2.55414
45.64	2.52849
45.65	2.52618
45.66	2.56895
45.67	2.54822
45.68	2.55875
45.69	2.56434
45.7	2.57158
45.71	2.53835
45.72	2.52717
45.73	2.5275
45.74	2.56105
45.75	2.54362
45.76	2.53835
45.77	2.54658
45.78	2.53046
45.79	2.56533
45.8	2.53671
45.81	2.50085
45.82	2.49822
45.83	2.53243
45.84	2.5252
45.85	2.52585
45.86	2.54526
45.87	2.51171
45.88	2.53737
45.89	2.55743
45.9	2.53112
45.91	2.54428
45.92	2.52454
45.93	2.51763
45.94	2.53934
45.95	2.53112
45.96	2.52783
45.97	2.52454
45.98	2.54099
45.99	2.54033
46	2.52125
46.01	2.51171
46.02	2.51796
46.03	2.52947
46.04	2.5275
46.05	2.55349
46.06	2.57454
46.07	2.51993
46.08	2.52421
46.09	2.53868
46.1	2.52684
46.11	2.54954
46.12	2.55053
46.13	2.53901
46.14	2.54099
46.15	2.50316
46.16	2.51006
46.17	2.51138
46.18	2.55316
46.19	2.52125
46.2	2.53474
46.21	2.54296
46.22	2.52158
46.23	2.53704
46.24	2.51533
46.25	2.51368
46.26	2.53342
46.27	2.51434
46.28	2.54789
46.29	2.56862
46.3	2.5321
46.31	2.51434
46.32	2.52092
46.33	2.51467
46.34	2.53638
46.35	2.53572
46.36	2.52717
46.37	2.5275
46.38	2.52717
46.39	2.54362
46.4	2.5525
46.41	2.52947
46.42	2.57421
46.43	2.52914
46.44	2.54164
46.45	2.55546
46.46	2.56072
46.47	2.53112
46.48	2.51138
46.49	2.50842
46.5	2.50381
46.51	2.54
46.52	2.54921
46.53	2.52355
46.54	2.52881
46.55	2.5252
46.56	2.53046
46.57	2.5423
46.58	2.53375
46.59	2.54493
46.6	2.55151
46.61	2.52914
46.62	2.53737
46.63	2.52585
46.64	2.55875
46.65	2.54131
46.66	2.51237
46.67	2.515
46.68	2.51039
46.69	2.52881
46.7	2.5377
46.71	2.54493
46.72	2.51138
46.73	2.53868
46.74	2.53671
46.75	2.53506
46.76	2.50908
46.77	2.52717
46.78	2.54658
46.79	2.52487
46.8	2.55414
46.81	2.53605
46.82	2.5571
46.83	2.56467
46.84	2.54526
46.85	2.54921
46.86	2.5423
46.87	2.51171
46.88	2.54197
46.89	2.55316
46.9	2.53441
46.91	2.56171
46.92	2.53243
46.93	2.5275
46.94	2.55579
46.95	2.53737
46.96	2.53802
46.97	2.56007
46.98	2.54395
46.99	2.51072
47	2.52618
47.01	2.54131
47.02	2.54921
47.03	2.56796
47.04	2.55579
47.05	2.49362
47.06	2.55579
47.07	2.5321
47.08	2.53934
47.09	2.54296
47.1	2.53276
47.11	2.52947
47.12	2.51796
47.13	2.54559
47.14	2.52256
47.15	2.56664
47.16	2.53046
47.17	2.52783
47.18	2.53309
47.19	2.52684
47.2	2.56763
47.21	2.55546
47.22	2.50842
47.23	2.53572
47.24	2.51763
47.25	2.53967
47.26	2.5298
47.27	2.5025
47.28	2.52651
47.29	2.49954
47.3	2.52849
47.31	2.51927
47.32	2.54625
47.33	2.53145
47.34	2.54888
47.35	2.54428
47.36	2.53079
47.37	2.50151
47.38	2.50052
47.39	2.5423
47.4	2.54954
47.41	2.52849
47.42	2.51796
47.43	2.51039
47.44	2.50973
47.45	2.53572
47.46	2.53276
47.47	2.53046
47.48	2.53408
47.49	2.52947
47.5	2.55941
47.51	2.52717
47.52	2.50381
47.53	2.5502
47.54	2.54033
47.55	2.53934
47.56	2.52059
47.57	2.53342
47.58	2.53901
47.59	2.53638
47.6	2.51927
47.61	2.51006
47.62	2.51895
47.63	2.53177
47.64	2.52849
47.65	2.55678
47.66	2.55645
47.67	2.50941
47.68	2.51566
47.69	2.51631
47.7	2.54329
47.71	2.54066
47.72	2.53835
47.73	2.5173
47.74	2.51138
47.75	2.50644
47.76	2.52092
47.77	2.5377
47.78	2.54855
47.79	2.53572
47.8	2.51204
47.81	2.52421
47.82	2.55053
47.83	2.55875
47.84	2.55349
47.85	2.53408
47.86	2.52256
47.87	2.50677
47.88	2.53835
47.89	2.52125
47.9	2.51072
47.91	2.52914
47.92	2.54131
47.93	2.54493
47.94	2.55875
47.95	2.5196
47.96	2.54329
47.97	2.5525
47.98	2.55842
47.99	2.52684
48	2.54658
48.01	2.52881
48.02	2.5196
48.03	2.55118
48.04	2.53967
48.05	2.54197
48.06	2.5321
48.07	2.53474
48.08	2.54164
48.09	2.54888
48.1	2.56434
48.11	2.53079
48.12	2.54559
48.13	2.54559
48.14	2.52158
48.15	2.54428
48.16	2.53441
48.17	2.53408
48.18	2.51631
48.19	2.51796
48.2	2.5275
48.21	2.54263
48.22	2.55381
48.23	2.5252
48.24	2.49625
48.25	2.54296
48.26	2.54625
48.27	2.52783
48.28	2.53408
48.29	2.52355
48.3	2.52487
48.31	2.53605
48.32	2.54987
48.33	2.53112
48.34	2.5548
48.35	2.52585
48.36	2.51631
48.37	2.56697
48.38	2.57717
48.39	2.51302
48.4	2.53013
48.41	2.55349
48.42	2.54724
48.43	2.54756
48.44	2.54099
48.45	2.52289
48.46	2.50447
48.47	2.51467
48.48	2.5173
48.49	2.52355
48.5	2.52322
48.51	2.52651
48.52	2.54296
48.53	2.55217
48.54	2.55546
48.55	2.52191
48.56	2.52388
48.57	2.49756
48.58	2.5321
48.59	2.5446
48.6	2.53572
48.61	2.51467
48.62	2.55217
48.63	2.53901
48.64	2.52125
48.65	2.54263
48.66	2.54921
48.67	2.5423
48.68	2.52289
48.69	2.51368
48.7	2.55579
48.71	2.51697
48.72	2.52256
48.73	2.53276
48.74	2.56204
48.75	2.54329
48.76	2.51993
48.77	2.50809
48.78	2.50973
48.79	2.54362
48.8	2.54033
48.81	2.52125
48.82	2.52059
48.83	2.52289
48.84	2.54658
48.85	2.54493
48.86	2.52421
48.87	2.54625
48.88	2.53506
48.89	2.55875
48.9	2.52651
48.91	2.52717
48.92	2.52092
48.93	2.53375
48.94	2.53506
48.95	2.51302
48.96	2.52552
48.97	2.50612
48.98	2.53506
48.99	2.5423
49	2.52256
49.01	2.55974
49.02	2.5446
49.03	2.5502
49.04	2.54099
49.05	2.52717
49.06	2.54921
49.07	2.53967
49.08	2.54493
49.09	2.52881
49.1	2.51533
49.11	2.53967
49.12	2.52947
49.13	2.53934
49.14	2.55974
49.15	2.55414
49.16	2.53243
49.17	2.5423
49.18	2.52322
49.19	2.52849
49.2	2.57191
49.21	2.53112
49.22	2.53408
49.23	2.54724
49.24	2.53177
49.25	2.50184
49.26	2.51204
49.27	2.52816
49.28	2.52618
49.29	2.51566
49.3	2.51072
49.31	2.5275
49.32	2.56895
49.33	2.52881
49.34	2.54131
49.35	2.52618
49.36	2.51993
49.37	2.54921
49.38	2.55842
49.39	2.53901
49.4	2.54493
49.41	2.52585
49.42	2.55612
49.43	2.54197
49.44	2.53605
49.45	2.55151
49.46	2.57289
49.47	2.53539
49.48	2.53375
49.49	2.53506
49.5	2.56138
49.51	2.53276
49.52	2.53539
49.53	2.53243
49.54	2.54131
49.55	2.53408
49.56	2.51171
49.57	2.53901
49.58	2.53704
49.59	2.54428
49.6	2.54099
49.61	2.51533
49.62	2.54131
49.63	2.53309
49.64	2.55184
49.65	2.57059
49.66	2.54921
49.67	2.53342
49.68	2.5321
49.69	2.51895
49.7	2.52092
49.71	2.53638
49.72	2.52816
49.73	2.55217
49.74	2.52289
49.75	2.53145
49.76	2.53671
49.77	2.51664
49.78	2.52059
49.79	2.52223
49.8	2.5321
49.81	2.53046
49.82	2.52684
49.83	2.5321
49.84	2.52585
49.85	2.50316
49.86	2.51006
49.87	2.54493
49.88	2.54921
49.89	2.57717
49.9	2.59
49.91	2.52191
49.92	2.54263
49.93	2.55151
49.94	2.54033
49.95	2.54066
49.96	2.54362
49.97	2.54921
49.98	2.5298
49.99	2.53342
50	2.50875
