"BIO-KINE ASCII FILE"
"_COMMENT"	"MOS-500 Spectrometer"
"_COMMENT"	"Kinetics measurement"
"_COMMENT"	"Y Unit : Volt,  X Unit : s"
"_COMMENT"	"Excitation wavelength : 380 nm"
"_COMMENT"	"Fentes bandwidth =  1 nm"
"_COMMENT"	"HV= 1000V"
"_COMMENT"	"Timebase  1 =  .01 s   5001 pts"
"_SFM"	"SFM-400 /S  Advanced mode"
"_SFM"	"Ratio : S1: 2.5, S2: 0, S3: 0, S4: 1"
"_SFM"	"Content : S1: , S2: , S3: , S4:"
"_SFM"	"Concentration : S1: , S2: , S3: , S4:"
"_SFM"	"Total volume : 209 µl  Flow : 3.5 mL/s"
"_SFM"	"Acquisition start :  10 ms before stop"
"_SFM"	"cuve=FC-15, s1=10 ml , s2=10 ml , s3=10 ml , s4=1.9 ml"
"_UNITX"	"s"
"_UNITY"	"Volt"
"_DELTAX"	0
"_DATA"
1e-300	2.97291
0.01	2.9433
0.02	2.92554
0.03	3.02686
0.04	3.06732
0.05	3.05844
0.06	3.10482
0.07	3.13541
0.08	3.16699
0.09	3.16305
0.1	3.18081
0.11	3.15778
0.12	3.17226
0.13	3.2012
0.14	3.20022
0.15	3.20417
0.16	3.21371
0.17	3.20384
0.18	3.2068
0.19	3.21173
0.2	3.1818
0.21	3.21206
0.22	3.20417
0.23	3.1966
0.24	3.19561
0.25	3.22489
0.26	3.22785
0.27	3.19068
0.28	3.22785
0.29	3.21239
0.3	3.21963
0.31	3.21173
0.32	3.19792
0.33	3.20877
0.34	3.19331
0.35	3.16962
0.36	3.19101
0.37	3.17851
0.38	3.21502
0.39	3.19956
0.4	3.18443
0.41	3.20219
0.42	3.21403
0.43	3.23706
0.44	3.21864
0.45	3.19792
0.46	3.23476
0.47	3.21009
0.48	3.22226
0.49	3.19693
0.5	3.18541
0.51	3.2012
0.52	3.19298
0.53	3.20482
0.54	3.20548
0.55	3.21798
0.56	3.2091
0.57	3.21107
0.58	3.17291
0.59	3.1841
0.6	3.15515
0.61	3.19627
0.62	3.21502
0.63	3.19002
0.64	3.17851
0.65	3.20515
0.66	3.18443
0.67	3.20252
0.68	3.20943
0.69	3.20548
0.7	3.21732
0.71	3.20285
0.72	3.2091
0.73	3.1864
0.74	3.22917
0.75	3.22555
0.76	3.17127
0.77	3.22489
0.78	3.19956
0.79	3.18574
0.8	3.19397
0.81	3.19857
0.82	3.18838
0.83	3.18541
0.84	3.19101
0.85	3.18772
0.86	3.1966
0.87	3.20219
0.88	3.19495
0.89	3.17259
0.9	3.18147
0.91	3.19364
0.92	3.20482
0.93	3.20384
0.94	3.17916
0.95	3.19199
0.96	3.17686
0.97	3.22423
0.98	3.20449
0.99	3.20745
1	3.23969
1.01	3.19989
1.02	3.19792
1.03	3.1864
1.04	3.1818
1.05	3.17357
1.06	3.21239
1.07	3.19035
1.08	3.19824
1.09	3.18443
1.1	3.18969
1.11	3.18213
1.12	3.14923
1.13	3.17587
1.14	3.1887
1.15	3.22324
1.16	3.18048
1.17	3.16699
1.18	3.17094
1.19	3.18574
1.2	3.14824
1.21	3.17884
1.22	3.16864
1.23	3.17456
1.24	3.13673
1.25	3.17127
1.26	3.16732
1.27	3.1716
1.28	3.17456
1.29	3.19265
1.3	3.1887
1.31	3.17555
1.32	3.18739
1.33	3.19035
1.34	3.1966
1.35	3.2239
1.36	3.17028
1.37	3.15745
1.38	3.20548
1.39	3.17851
1.4	3.12949
1.41	3.14561
1.42	3.18805
1.43	3.18772
1.44	3.15581
1.45	3.19002
1.46	3.17752
1.47	3.18673
1.48	3.17916
1.49	3.19989
1.5	3.18344
1.51	3.17884
1.52	3.19693
1.53	3.17884
1.54	3.1512
1.55	3.15811
1.56	3.14298
1.57	3.15449
1.58	3.16831
1.59	3.1637
1.6	3.1364
1.61	3.16765
1.62	3.13739
1.63	3.14693
1.64	3.15252
1.65	3.17555
1.66	3.18015
1.67	3.18048
1.68	3.13837
1.69	3.17324
1.7	3.15055
1.71	3.17949
1.72	3.14495
1.73	3.12719
1.74	3.10745
1.75	3.18311
1.76	3.16173
1.77	3.11929
1.78	3.16502
1.79	3.11897
1.8	3.13508
1.81	3.15647
1.82	3.1466
1.83	3.14298
1.84	3.14232
1.85	3.14462
1.86	3.15022
1.87	3.16173
1.88	3.18607
1.89	3.18673
1.9	3.17094
1.91	3.1693
1.92	3.1364
1.93	3.17226
1.94	3.18476
1.95	3.1568
1.96	3.1341
1.97	3.13081
1.98	3.13936
1.99	3.14726
2	3.14956
2.01	3.14528
2.02	3.13804
2.03	3.14495
2.04	3.15745
2.05	3.14824
2.06	3.13673
2.07	3.1568
2.08	3.15778
2.09	3.12291
2.1	3.14133
2.11	3.15219
2.12	3.17226
2.13	3.14331
2.14	3.12127
2.15	3.14989
2.16	3.1716
2.17	3.14956
2.18	3.17061
2.19	3.13936
2.2	3.14133
2.21	3.17357
2.22	3.1864
2.23	3.11765
2.24	3.09232
2.25	3.1489
2.26	3.12324
2.27	3.15186
2.28	3.16041
2.29	3.16305
2.3	3.14166
2.31	3.11535
2.32	3.14857
2.33	3.1387
2.34	3.12653
2.35	3.15614
2.36	3.14166
2.37	3.11469
2.38	3.14824
2.39	3.13114
2.4	3.15515
2.41	3.16995
2.42	3.14133
2.43	3.14199
2.44	3.14528
2.45	3.14397
2.46	3.13048
2.47	3.1262
2.48	3.14594
2.49	3.15285
2.5	3.16962
2.51	3.14331
2.52	3.12686
2.53	3.12785
2.54	3.12357
2.55	3.11239
2.56	3.11897
2.57	3.12982
2.58	3.11535
2.59	3.12949
2.6	3.14791
2.61	3.12883
2.62	3.11699
2.63	3.13311
2.64	3.14989
2.65	3.16831
2.66	3.14495
2.67	3.13673
2.68	3.13443
2.69	3.13936
2.7	3.15383
2.71	3.12522
2.72	3.12061
2.73	3.10679
2.74	3.12291
2.75	3.13147
2.76	3.13739
2.77	3.09956
2.78	3.12719
2.79	3.09956
2.8	3.11304
2.81	3.14429
2.82	3.13147
2.83	3.10679
2.84	3.15943
2.85	3.14824
2.86	3.1285
2.87	3.15022
2.88	3.11732
2.89	3.11074
2.9	3.09923
2.91	3.11962
2.92	3.12061
2.93	3.12653
2.94	3.13278
2.95	3.12028
2.96	3.13015
2.97	3.10943
2.98	3.11173
2.99	3.13837
3	3.12752
3.01	3.11206
3.02	3.12193
3.03	3.11502
3.04	3.11633
3.05	3.1114
3.06	3.15383
3.07	3.16107
3.08	3.11633
3.09	3.12456
3.1	3.13541
3.11	3.14594
3.12	3.14331
3.13	3.12456
3.14	3.10581
3.15	3.14265
3.16	3.09989
3.17	3.09857
3.18	3.10581
3.19	3.15055
3.2	3.12028
3.21	3.1285
3.22	3.1466
3.23	3.11831
3.24	3.10943
3.25	3.11699
3.26	3.1489
3.27	3.12785
3.28	3.11864
3.29	3.12785
3.3	3.13804
3.31	3.11929
3.32	3.12686
3.33	3.14265
3.34	3.09923
3.35	3.10318
3.36	3.09528
3.37	3.1091
3.38	3.0966
3.39	3.12554
3.4	3.09265
3.41	3.08508
3.42	3.13936
3.43	3.12916
3.44	3.11995
3.45	3.10021
3.46	3.11732
3.47	3.10482
3.48	3.11074
3.49	3.09002
3.5	3.09758
3.51	3.12456
3.52	3.14232
3.53	3.15186
3.54	3.12686
3.55	3.11436
3.56	3.12357
3.57	3.12883
3.58	3.11008
3.59	3.06798
3.6	3.12324
3.61	3.09989
3.62	3.11469
3.63	3.13969
3.64	3.1012
3.65	3.1114
3.66	3.11765
3.67	3.10318
3.68	3.14068
3.69	3.1262
3.7	3.11535
3.71	3.06337
3.72	3.09067
3.73	3.09166
3.74	3.07752
3.75	3.09265
3.76	3.08804
3.77	3.09923
3.78	3.10252
3.79	3.07192
3.8	3.1012
3.81	3.09364
3.82	3.12554
3.83	3.07916
3.84	3.11469
3.85	3.08969
3.86	3.07061
3.87	3.09627
3.88	3.10548
3.89	3.11469
3.9	3.09627
3.91	3.06337
3.92	3.09331
3.93	3.12324
3.94	3.08212
3.95	3.1012
3.96	3.11995
3.97	3.08475
3.98	3.0864
3.99	3.06469
4	3.10943
4.01	3.10087
4.02	3.07916
4.03	3.07817
4.04	3.08048
4.05	3.09265
4.06	3.11469
4.07	3.08081
4.08	3.07094
4.09	3.09923
4.1	3.08278
4.11	3.05679
4.12	3.09923
4.13	3.13673
4.14	3.11666
4.15	3.11008
4.16	3.09232
4.17	3.08804
4.18	3.10614
4.19	3.08739
4.2	3.0716
4.21	3.09791
4.22	3.10778
4.23	3.1091
4.24	3.09331
4.25	3.09561
4.26	3.09166
4.27	3.09561
4.28	3.09133
4.29	3.10943
4.3	3.09857
4.31	3.09331
4.32	3.066
4.33	3.08442
4.34	3.09495
4.35	3.10021
4.36	3.08574
4.37	3.08179
4.38	3.09199
4.39	3.05383
4.4	3.09462
4.41	3.07028
4.42	3.10383
4.43	3.08706
4.44	3.07883
4.45	3.0841
4.46	3.07488
4.47	3.08739
4.48	3.0512
4.49	3.04923
4.5	3.07521
4.51	3.08015
4.52	3.07785
4.53	3.07521
4.54	3.0887
4.55	3.0762
4.56	3.0966
4.57	3.05153
4.58	3.13443
4.59	3.10877
4.6	3.10186
4.61	3.10383
4.62	3.08969
4.63	3.06896
4.64	3.09594
4.65	3.06666
4.66	3.11337
4.67	3.08179
4.68	3.10186
4.69	3.12127
4.7	3.09956
4.71	3.06666
4.72	3.08475
4.73	3.10811
4.74	3.07324
4.75	3.0785
4.76	3.08278
4.77	3.06962
4.78	3.10021
4.79	3.08146
4.8	3.06666
4.81	3.07061
4.82	3.06271
4.83	3.07719
4.84	3.06962
4.85	3.06798
4.86	3.08903
4.87	3.09561
4.88	3.1035
4.89	3.08936
4.9	3.10515
4.91	3.066
4.92	3.08442
4.93	3.11469
4.94	3.06403
4.95	3.08574
4.96	3.07949
4.97	3.0637
4.98	3.0489
4.99	3.07719
5	3.07061
5.01	3.05942
5.02	3.09133
5.03	3.08081
5.04	3.06403
5.05	3.06337
5.06	3.07324
5.07	3.05153
5.08	3.08212
5.09	3.09594
5.1	3.066
5.11	3.07653
5.12	3.05581
5.13	3.0364
5.14	3.08475
5.15	3.0785
5.16	3.08015
5.17	3.07817
5.18	3.09265
5.19	3.10252
5.2	3.09824
5.21	3.07554
5.22	3.06666
5.23	3.05745
5.24	3.07752
5.25	3.09824
5.26	3.09857
5.27	3.03409
5.28	3.05482
5.29	3.0989
5.3	3.09528
5.31	3.03442
5.32	3.07752
5.33	3.08541
5.34	3.11304
5.35	3.091
5.36	3.06831
5.37	3.03442
5.38	3.07028
5.39	3.08212
5.4	3.07653
5.41	3.05515
5.42	3.03442
5.43	3.05482
5.44	3.05909
5.45	3.07554
5.46	3.07785
5.47	3.06238
5.48	3.07423
5.49	3.09199
5.5	3.10318
5.51	3.06008
5.52	3.07488
5.53	3.05416
5.54	3.02324
5.55	3.06633
5.56	3.06732
5.57	3.0841
5.58	3.0512
5.59	3.06041
5.6	3.09002
5.61	3.06008
5.62	3.07192
5.63	3.0614
5.64	3.02061
5.65	3.04396
5.66	3.09364
5.67	3.08377
5.68	3.07949
5.69	3.07357
5.7	3.0716
5.71	3.07916
5.72	3.08377
5.73	3.0512
5.74	3.04725
5.75	3.07949
5.76	3.0887
5.77	3.02949
5.78	3.09002
5.79	3.06798
5.8	3.06863
5.81	3.02686
5.82	3.04824
5.83	3.0966
5.84	3.06798
5.85	3.05975
5.86	3.02982
5.87	3.05646
5.88	3.06238
5.89	3.03376
5.9	3.04462
5.91	3.03376
5.92	3.09824
5.93	3.08508
5.94	3.05646
5.95	3.05581
5.96	3.03969
5.97	3.03376
5.98	3.03738
5.99	3.05877
6	3.06173
6.01	3.07291
6.02	3.07028
6.03	3.04462
6.04	3.01501
6.05	3.03508
6.06	3.04462
6.07	3.0716
6.08	3.04067
6.09	3.06008
6.1	3.03969
6.11	3.04791
6.12	3.04955
6.13	3.02258
6.14	3.05153
6.15	3.07061
6.16	3.06436
6.17	3.04988
6.18	3.05909
6.19	3.07028
6.2	3.04528
6.21	3.0512
6.22	3.06863
6.23	3.07752
6.24	3.0489
6.25	3.06863
6.26	3.04627
6.27	3.03541
6.28	3.06008
6.29	3.05186
6.3	3.04199
6.31	3.03442
6.32	3.02719
6.33	3.06206
6.34	3.05811
6.35	3.06699
6.36	3.05581
6.37	3.04824
6.38	3.05646
6.39	3.08344
6.4	3.07192
6.41	3.03475
6.42	3.08936
6.43	3.03146
6.44	3.0239
6.45	3.05581
6.46	3.06173
6.47	3.07587
6.48	3.05613
6.49	3.03311
6.5	3.04495
6.51	3.02883
6.52	2.99758
6.53	3.03376
6.54	3.04067
6.55	3.04232
6.56	3.0387
6.57	3.07949
6.58	3.0762
6.59	3.00909
6.6	3.0489
6.61	3.08574
6.62	3.05317
6.63	3.07291
6.64	3.09265
6.65	3.02949
6.66	3.00909
6.67	3.00416
6.68	3.02192
6.69	3.01863
6.7	3.02554
6.71	3.05844
6.72	3.05778
6.73	3.04298
6.74	3.05646
6.75	3.03376
6.76	3.0285
6.77	3.04561
6.78	3.02423
6.79	3.0387
6.8	3.03146
6.81	3.03245
6.82	3.06469
6.83	3.02587
6.84	3.01304
6.85	3.01896
6.86	3.0512
6.87	3.04627
6.88	3.03607
6.89	3.03376
6.9	3.08146
6.91	3.02159
6.92	3.06173
6.93	3.05646
6.94	3.05613
6.95	3.06173
6.96	3.06502
6.97	3.06732
6.98	3.06173
6.99	3.0433
7	3.01798
7.01	3.02817
7.02	3.0308
7.03	3.04824
7.04	3.00844
7.05	3.04659
7.06	3.04692
7.07	3.04659
7.08	3.01732
7.09	3.02916
7.1	3.02554
7.11	3.05909
7.12	3.03771
7.13	3.07653
7.14	3.04462
7.15	3.05909
7.16	3.041
7.17	3.04594
7.18	3.06008
7.19	3.03311
7.2	3.04265
7.21	3.0262
7.22	3.02061
7.23	3.05186
7.24	3.05021
7.25	3.07982
7.26	3.03804
7.27	3.04002
7.28	3.03048
7.29	3.06271
7.3	3.04396
7.31	3.04462
7.32	3.03146
7.33	3.06633
7.34	3.06403
7.35	3.05778
7.36	3.02554
7.37	3.02291
7.38	3.0183
7.39	3.02423
7.4	3.04659
7.41	3.03146
7.42	3.04725
7.43	3.04166
7.44	2.99067
7.45	3.03541
7.46	3.05219
7.47	3.01699
7.48	3.01041
7.49	3.02784
7.5	3.03903
7.51	3.01929
7.52	3.04265
7.53	3.04659
7.54	3.01172
7.55	3.01798
7.56	3.02916
7.57	3.06534
7.58	3.016
7.59	3.02291
7.6	3.0364
7.61	3.03146
7.62	3.05942
7.63	3.04955
7.64	3.01271
7.65	3.03409
7.66	3.01337
7.67	3.05416
7.68	3.02357
7.69	3.00975
7.7	3.0285
7.71	3.02159
7.72	3.02817
7.73	3.00482
7.74	3.00646
7.75	3.04725
7.76	3.02291
7.77	2.99429
7.78	3.01699
7.79	3.03311
7.8	3.02192
7.81	3.02488
7.82	3.06008
7.83	3.02817
7.84	3.0308
7.85	3.04265
7.86	3.02587
7.87	3.01172
7.88	3.0364
7.89	3.02028
7.9	2.99988
7.91	3.01929
7.92	3.05745
7.93	3.03376
7.94	3.03541
7.95	3.04067
7.96	3.03508
7.97	3.0308
7.98	3.03409
7.99	3.03212
8	3.03376
8.01	3.0058
8.02	3.02192
8.03	3.0387
8.04	3.06732
8.05	3.00909
8.06	3.03212
8.07	3.04199
8.08	3.02883
8.09	3.0012
8.1	3.00449
8.11	3.03903
8.12	3.04659
8.13	3.03607
8.14	3.06502
8.15	3.06041
8.16	3.01896
8.17	3.02653
8.18	2.99626
8.19	3.01633
8.2	3.01699
8.21	2.99692
8.22	3.01798
8.23	3.0137
8.24	2.9864
8.25	2.98607
8.26	3.03278
8.27	3.06173
8.28	3.02357
8.29	2.98672
8.3	3.04199
8.31	3.0308
8.32	3.02982
8.33	3.01765
8.34	3.0262
8.35	3.03442
8.36	3.03179
8.37	3.03705
8.38	3.01271
8.39	3.0183
8.4	3.01995
8.41	3.02949
8.42	3.05778
8.43	3.03771
8.44	3.04034
8.45	3.02324
8.46	3.03113
8.47	3.0183
8.48	2.98508
8.49	2.9933
8.5	3.05021
8.51	3.02719
8.52	2.99857
8.53	3.01008
8.54	3.02094
8.55	3.00087
8.56	3.0012
8.57	3.02192
8.58	2.97061
8.59	3.00186
8.6	3.01469
8.61	3.0137
8.62	2.99791
8.63	3.01929
8.64	3.00021
8.65	3.03245
8.66	2.99922
8.67	2.99034
8.68	2.9989
8.69	3.03738
8.7	3.02225
8.71	3.00942
8.72	3.02258
8.73	3.01765
8.74	3.00383
8.75	3.00844
8.76	3.03146
8.77	2.98541
8.78	3.00317
8.79	3.00646
8.8	3.01699
8.81	2.99265
8.82	2.9933
8.83	3.01567
8.84	3.00153
8.85	3.01469
8.86	3.04758
8.87	3.03376
8.88	3.041
8.89	3.02653
8.9	3.01962
8.91	3.04462
8.92	3.0114
8.93	2.99528
8.94	3.02817
8.95	3.02423
8.96	3.02357
8.97	2.99988
8.98	2.99363
8.99	2.991
9	3.01074
9.01	3.01304
9.02	3.04067
9.03	3.0035
9.04	2.99659
9.05	2.97686
9.06	2.99626
9.07	3.01238
9.08	3.03541
9.09	3.01929
9.1	3.01732
9.11	2.97422
9.12	3.02423
9.13	3.01699
9.14	3.00251
9.15	3.01008
9.16	3.00778
9.17	2.99922
9.18	3.00679
9.19	3.03113
9.2	3.02751
9.21	3.05679
9.22	3.02357
9.23	3.00712
9.24	3.04429
9.25	3.00054
9.26	3.02982
9.27	2.98771
9.28	3.03245
9.29	3.02686
9.3	3.01567
9.31	3.00547
9.32	2.99626
9.33	2.99857
9.34	2.98936
9.35	3.02554
9.36	3.01238
9.37	3.02258
9.38	2.98903
9.39	2.966
9.4	2.99988
9.41	3.04363
9.42	3.01863
9.43	2.99528
9.44	3.00613
9.45	3.01534
9.46	2.97061
9.47	2.96764
9.48	3.02061
9.49	3.01929
9.5	3.01107
9.51	3.00679
9.52	3.0535
9.53	3.01501
9.54	2.98311
9.55	3.0308
9.56	3.03409
9.57	3.00186
9.58	2.98541
9.59	3.00613
9.6	3.01436
9.61	3.02488
9.62	3.00942
9.63	2.99297
9.64	2.9808
9.65	3.00054
9.66	3.00416
9.67	3.0035
9.68	3.02455
9.69	3.00712
9.7	3.0012
9.71	3.02126
9.72	3.01469
9.73	3.00482
9.74	3.01633
9.75	2.99396
9.76	2.9864
9.77	2.97883
9.78	3.00449
9.79	2.98146
9.8	2.98672
9.81	3.01304
9.82	3.016
9.83	2.98903
9.84	2.97093
9.85	2.96107
9.86	2.9785
9.87	2.98508
9.88	2.97488
9.89	3.01107
9.9	3.02028
9.91	3.01567
9.92	3.0012
9.93	2.99626
9.94	2.98936
9.95	3.00054
9.96	2.98936
9.97	2.99495
9.98	2.99725
9.99	3.01074
10	3.01798
10.01	3.00942
10.02	2.9864
10.03	3.03771
10.04	2.9762
10.05	2.98442
10.06	2.97093
10.07	2.97126
10.08	3.00515
10.09	3.00449
10.1	3.01567
10.11	3.00745
10.12	3.00547
10.13	3.0058
10.14	3.02357
10.15	2.9887
10.16	2.9933
10.17	3.01238
10.18	3.00844
10.19	2.9864
10.2	2.99265
10.21	3.03409
10.22	3.01074
10.23	3.00679
10.24	3.01238
10.25	3.01633
10.26	3.02554
10.27	2.97159
10.28	3.00679
10.29	3.01271
10.3	3.01074
10.31	2.97521
10.32	2.98738
10.33	3.00712
10.34	3.01041
10.35	2.99034
10.36	3.01469
10.37	3.01008
10.38	2.97982
10.39	2.99725
10.4	2.99166
10.41	3.01337
10.42	3.01469
10.43	3.00712
10.44	2.99429
10.45	3.00153
10.46	3.00449
10.47	2.96435
10.48	2.9512
10.49	3.02817
10.5	3.00679
10.51	2.99922
10.52	3.01107
10.53	3.00186
10.54	2.98475
10.55	3.0114
10.56	2.97324
10.57	2.97784
10.58	3.00087
10.59	3.02225
10.6	3.03607
10.61	2.99857
10.62	2.99955
10.63	2.98278
10.64	2.99758
10.65	2.99593
10.66	3.01074
10.67	2.99955
10.68	3.01633
10.69	2.99166
10.7	2.97357
10.71	2.99692
10.72	2.99561
10.73	2.95942
10.74	2.97949
10.75	2.9808
10.76	3.01863
10.77	3.01271
10.78	2.98936
10.79	2.99067
10.8	3.0262
10.81	2.99297
10.82	2.97291
10.83	3.00317
10.84	3.00613
10.85	2.98541
10.86	2.97093
10.87	2.98278
10.88	2.98771
10.89	3.02324
10.9	3.02587
10.91	3.04594
10.92	2.99495
10.93	2.96666
10.94	2.97982
10.95	2.97554
10.96	2.98343
10.97	3.0035
10.98	3.00712
10.99	2.99692
11	2.97883
11.01	2.96863
11.02	2.99166
11.03	2.99955
11.04	2.99396
11.05	2.98968
11.06	2.96995
11.07	2.9887
11.08	2.99955
11.09	2.99495
11.1	2.97422
11.11	2.97949
11.12	2.97192
11.13	3.00219
11.14	2.96304
11.15	2.99001
11.16	2.94824
11.17	2.99166
11.18	2.99988
11.19	2.96107
11.2	2.97291
11.21	2.97324
11.22	2.97686
11.23	2.9762
11.24	2.98146
11.25	2.96995
11.26	2.97718
11.27	2.97192
11.28	3.00646
11.29	3.0137
11.3	2.99133
11.31	2.9785
11.32	2.9262
11.33	2.96074
11.34	2.97258
11.35	2.99922
11.36	2.97291
11.37	2.9683
11.38	2.95646
11.39	2.99363
11.4	2.98245
11.41	2.98508
11.42	3.00646
11.43	2.9864
11.44	2.93771
11.45	2.99561
11.46	3.0058
11.47	2.96797
11.48	2.98113
11.49	2.96567
11.5	2.99659
11.51	2.99692
11.52	2.97126
11.53	2.9933
11.54	2.99199
11.55	3.0035
11.56	3.00317
11.57	3.02028
11.58	3.00975
11.59	2.96929
11.6	2.98047
11.61	2.97521
11.62	2.98672
11.63	3.0058
11.64	3.0058
11.65	2.98343
11.66	2.96205
11.67	3.01501
11.68	2.97093
11.69	2.98278
11.7	3.00416
11.71	3.00416
11.72	2.99462
11.73	3.01304
11.74	2.96995
11.75	2.94626
11.76	2.94856
11.77	2.99725
11.78	3.01995
11.79	2.98014
11.8	2.99265
11.81	2.99001
11.82	2.97061
11.83	2.95383
11.84	2.97455
11.85	2.95185
11.86	2.98311
11.87	2.99166
11.88	2.98936
11.89	2.99001
11.9	3.00811
11.91	2.98245
11.92	3.01534
11.93	2.99955
11.94	3.02028
11.95	2.99593
11.96	3.00054
11.97	2.98014
11.98	2.99561
11.99	2.97817
12	2.96074
12.01	3.00515
12.02	2.9864
12.03	2.9637
12.04	2.98541
12.05	2.98903
12.06	3.00054
12.07	2.96238
12.08	2.96468
12.09	3.01403
12.1	2.97751
12.11	2.98903
12.12	2.99429
12.13	3.01337
12.14	3.02324
12.15	2.98968
12.16	2.97718
12.17	2.97061
12.18	2.97225
12.19	2.97422
12.2	2.98343
12.21	3.00219
12.22	2.98607
12.23	2.96896
12.24	2.96896
12.25	2.98804
12.26	3.0114
12.27	2.96633
12.28	2.96501
12.29	2.96139
12.3	2.96534
12.31	2.9535
12.32	2.99133
12.33	2.96107
12.34	2.96304
12.35	2.98212
12.36	2.98705
12.37	2.94988
12.38	2.93212
12.39	2.96929
12.4	2.96205
12.41	2.98672
12.42	3.02094
12.43	2.99199
12.44	2.97817
12.45	3.00811
12.46	2.95613
12.47	2.96435
12.48	2.97982
12.49	2.9933
12.5	3.01995
12.51	3.00054
12.52	2.98508
12.53	2.92883
12.54	2.94133
12.55	2.96337
12.56	2.96929
12.57	2.96304
12.58	2.97653
12.59	2.9785
12.6	2.98738
12.61	2.97093
12.62	2.96633
12.63	2.98113
12.64	2.98672
12.65	2.96337
12.66	2.98607
12.67	2.98607
12.68	3.02949
12.69	3.02653
12.7	2.99396
12.71	2.9989
12.72	2.98607
12.73	2.98376
12.74	2.99199
12.75	2.95547
12.76	2.9535
12.77	2.96995
12.78	2.96008
12.79	2.96666
12.8	2.95778
12.81	2.99067
12.82	2.97126
12.83	2.94955
12.84	2.94396
12.85	2.95218
12.86	2.97718
12.87	2.95745
12.88	2.96699
12.89	2.97949
12.9	2.9808
12.91	2.99034
12.92	2.96107
12.93	2.92159
12.94	2.98705
12.95	3.00975
12.96	2.97751
12.97	2.9808
12.98	3.02324
12.99	2.96962
13	2.97883
13.01	2.97784
13.02	2.94659
13.03	2.95218
13.04	2.96633
13.05	2.966
13.06	2.97324
13.07	2.9933
13.08	2.96699
13.09	2.99495
13.1	2.97455
13.11	3.01501
13.12	2.97686
13.13	2.99528
13.14	2.97225
13.15	2.96567
13.16	2.97653
13.17	2.9683
13.18	2.97949
13.19	2.95942
13.2	2.95284
13.21	2.99363
13.22	2.98014
13.23	2.97455
13.24	2.94988
13.25	2.97126
13.26	2.96633
13.27	2.97718
13.28	3.0012
13.29	2.97916
13.3	2.97883
13.31	2.97258
13.32	2.93672
13.33	2.95383
13.34	2.98771
13.35	2.94133
13.36	2.9808
13.37	2.97587
13.38	2.94231
13.39	2.96929
13.4	2.97653
13.41	2.94791
13.42	2.98475
13.43	2.98508
13.44	2.96041
13.45	2.97061
13.46	2.95449
13.47	2.98047
13.48	2.97225
13.49	2.99232
13.5	2.99462
13.51	2.97225
13.52	2.9581
13.53	2.96534
13.54	2.99265
13.55	2.98113
13.56	2.98113
13.57	2.94988
13.58	2.98508
13.59	2.9535
13.6	2.96337
13.61	2.96205
13.62	2.95021
13.63	2.94856
13.64	2.96172
13.65	3.00383
13.66	2.991
13.67	2.96567
13.68	2.96896
13.69	2.9808
13.7	2.97982
13.71	2.96732
13.72	2.94593
13.73	2.96633
13.74	2.99626
13.75	2.99297
13.76	3.0035
13.77	2.96337
13.78	2.98245
13.79	2.99363
13.8	2.95021
13.81	2.96666
13.82	2.97225
13.83	2.97192
13.84	2.98672
13.85	2.98837
13.86	2.98804
13.87	2.93574
13.88	2.9762
13.89	3.00515
13.9	2.94659
13.91	2.95054
13.92	2.97751
13.93	2.96732
13.94	2.98014
13.95	2.97061
13.96	3.00416
13.97	2.99495
13.98	2.98442
13.99	2.97389
14	2.94199
14.01	2.98179
14.02	2.99824
14.03	2.96863
14.04	3.00153
14.05	2.99001
14.06	2.96172
14.07	2.98442
14.08	2.98343
14.09	2.95021
14.1	2.96896
14.11	2.95679
14.12	2.9387
14.13	2.96501
14.14	2.96534
14.15	2.95778
14.16	2.97817
14.17	2.96074
14.18	2.97192
14.19	2.9558
14.2	2.97357
14.21	2.98672
14.22	2.991
14.23	2.96995
14.24	2.93343
14.25	2.99857
14.26	2.98672
14.27	2.96107
14.28	2.96863
14.29	2.96699
14.3	2.93903
14.31	2.95087
14.32	2.95547
14.33	2.94363
14.34	2.96172
14.35	2.97357
14.36	2.9535
14.37	2.9785
14.38	2.96435
14.39	2.96534
14.4	2.96666
14.41	2.97718
14.42	2.97817
14.43	2.95646
14.44	2.92389
14.45	2.96008
14.46	2.93508
14.47	2.9637
14.48	2.97357
14.49	2.97751
14.5	2.95251
14.51	3.00021
14.52	2.99034
14.53	2.96764
14.54	3.00383
14.55	2.97751
14.56	2.97357
14.57	2.966
14.58	2.98146
14.59	2.98179
14.6	2.95745
14.61	3.0035
14.62	2.97718
14.63	2.97554
14.64	2.96008
14.65	2.98278
14.66	2.97258
14.67	2.97126
14.68	2.96501
14.69	2.98014
14.7	2.95416
14.71	2.98343
14.72	2.9535
14.73	2.96403
14.74	2.98311
14.75	2.96962
14.76	2.95876
14.77	2.92817
14.78	2.96074
14.79	2.98541
14.8	2.98311
14.81	3.00449
14.82	2.9535
14.83	2.9785
14.84	2.97291
14.85	2.95843
14.86	2.96337
14.87	2.96172
14.88	2.9512
14.89	2.97686
14.9	2.98475
14.91	2.96666
14.92	2.95284
14.93	2.91633
14.94	2.93837
14.95	2.9206
14.96	2.93639
14.97	2.96271
14.98	2.97126
14.99	2.97554
15	2.97258
15.01	2.96764
15.02	2.96764
15.03	2.96567
15.04	2.95778
15.05	2.94462
15.06	2.96205
15.07	2.98541
15.08	2.97093
15.09	2.97653
15.1	2.97488
15.11	2.98179
15.12	2.94659
15.13	2.9933
15.14	2.98475
15.15	2.98047
15.16	2.99857
15.17	2.97192
15.18	2.94429
15.19	2.93245
15.2	2.96633
15.21	2.97521
15.22	2.95317
15.23	2.94889
15.24	2.96304
15.25	2.96501
15.26	2.95547
15.27	2.97488
15.28	2.95482
15.29	2.93475
15.3	2.97488
15.31	2.93277
15.32	2.94495
15.33	2.95021
15.34	2.95843
15.35	2.97883
15.36	2.98014
15.37	2.97949
15.38	2.96271
15.39	2.92324
15.4	2.98014
15.41	2.98146
15.42	2.97817
15.43	2.97192
15.44	2.98705
15.45	2.92949
15.46	3.00284
15.47	2.99561
15.48	2.97488
15.49	2.98212
15.5	2.98968
15.51	2.94889
15.52	2.98442
15.53	2.96863
15.54	2.97028
15.55	2.96139
15.56	2.95778
15.57	2.94396
15.58	2.98113
15.59	2.98376
15.6	2.97455
15.61	2.96435
15.62	2.97324
15.63	2.94758
15.64	2.94955
15.65	2.93541
15.66	2.94396
15.67	2.96567
15.68	2.93903
15.69	2.94001
15.7	2.9433
15.71	2.93475
15.72	2.95646
15.73	2.96205
15.74	2.97817
15.75	2.96403
15.76	2.95087
15.77	2.97389
15.78	2.95712
15.79	2.94922
15.8	2.98705
15.81	2.96139
15.82	2.97554
15.83	2.97324
15.84	2.91995
15.85	2.94922
15.86	2.94856
15.87	2.97587
15.88	2.92916
15.89	2.93047
15.9	2.93508
15.91	2.9808
15.92	2.97488
15.93	2.96995
15.94	2.99824
15.95	2.96501
15.96	2.94166
15.97	2.94396
15.98	2.96764
15.99	2.94297
16	2.97982
16.01	2.93935
16.02	2.95251
16.03	2.94001
16.04	2.9456
16.05	2.95185
16.06	2.95021
16.07	2.95218
16.08	2.97521
16.09	2.94692
16.1	2.97225
16.11	2.95021
16.12	2.92916
16.13	2.95646
16.14	2.9558
16.15	2.94955
16.16	2.97751
16.17	2.98541
16.18	2.97061
16.19	2.99659
16.2	2.96107
16.21	2.95482
16.22	2.98475
16.23	2.95778
16.24	2.95251
16.25	2.97949
16.26	2.9808
16.27	2.95021
16.28	2.98343
16.29	2.96205
16.3	2.941
16.31	2.95514
16.32	2.96205
16.33	2.96074
16.34	2.9933
16.35	2.96435
16.36	2.9535
16.37	2.97718
16.38	2.99166
16.39	2.99034
16.4	2.93113
16.41	2.96107
16.42	2.97324
16.43	2.97028
16.44	2.95745
16.45	2.97357
16.46	2.95185
16.47	2.91468
16.48	2.93277
16.49	2.96995
16.5	2.96501
16.51	2.99001
16.52	3.00317
16.53	2.96567
16.54	2.91041
16.55	2.95185
16.56	2.95284
16.57	2.97916
16.58	2.96435
16.59	2.94396
16.6	2.95843
16.61	2.94922
16.62	2.92554
16.63	2.96962
16.64	2.94758
16.65	2.92159
16.66	2.9512
16.67	2.95712
16.68	2.97192
16.69	2.95087
16.7	2.92981
16.71	2.94922
16.72	2.97751
16.73	2.94889
16.74	2.94955
16.75	2.9864
16.76	2.95054
16.77	2.95975
16.78	2.96797
16.79	2.94363
16.8	2.94889
16.81	2.97982
16.82	2.96699
16.83	2.95284
16.84	2.95185
16.85	2.94067
16.86	2.93442
16.87	2.94034
16.88	2.92883
16.89	2.97389
16.9	2.96468
16.91	2.98179
16.92	2.94856
16.93	2.95942
16.94	2.94922
16.95	2.95646
16.96	2.99166
16.97	2.94988
16.98	2.93968
16.99	2.98574
17	2.95317
17.01	2.95251
17.02	2.9637
17.03	2.97357
17.04	2.95514
17.05	2.96337
17.06	2.97126
17.07	2.98738
17.08	2.96633
17.09	2.98442
17.1	2.93475
17.11	2.93738
17.12	2.9808
17.13	2.99725
17.14	2.9512
17.15	2.98146
17.16	2.96205
17.17	2.94396
17.18	2.96962
17.19	2.95251
17.2	2.93672
17.21	2.92422
17.22	2.97883
17.23	2.99922
17.24	2.95942
17.25	2.94758
17.26	2.96337
17.27	2.95416
17.28	2.94166
17.29	2.95843
17.3	2.93804
17.31	2.94824
17.32	2.97028
17.33	2.94988
17.34	2.95778
17.35	2.93047
17.36	2.95284
17.37	2.96468
17.38	2.96797
17.39	2.9637
17.4	2.94495
17.41	2.94791
17.42	2.94067
17.43	2.94166
17.44	2.95054
17.45	2.99462
17.46	2.9535
17.47	2.94001
17.48	2.98014
17.49	2.95087
17.5	2.92521
17.51	3.00021
17.52	2.93639
17.53	2.94396
17.54	2.93771
17.55	2.95021
17.56	2.93376
17.57	2.95153
17.58	2.95679
17.59	2.97126
17.6	2.9808
17.61	2.97587
17.62	2.9456
17.63	2.92159
17.64	2.93606
17.65	2.94264
17.66	2.94264
17.67	2.9058
17.68	2.95185
17.69	2.9387
17.7	2.9512
17.71	2.93475
17.72	2.95745
17.73	2.95514
17.74	2.966
17.75	2.95909
17.76	2.94034
17.77	2.95482
17.78	2.94297
17.79	2.96863
17.8	2.94396
17.81	2.95449
17.82	2.96435
17.83	2.95679
17.84	2.92718
17.85	2.94758
17.86	2.94692
17.87	2.96304
17.88	2.97686
17.89	2.98936
17.9	2.96567
17.91	2.97159
17.92	2.94593
17.93	2.96139
17.94	2.96139
17.95	2.9512
17.96	2.9535
17.97	2.95547
17.98	2.94758
17.99	2.94495
18	2.96041
18.01	2.95054
18.02	2.96764
18.03	2.9433
18.04	2.94199
18.05	2.96863
18.06	2.95745
18.07	2.97718
18.08	2.96732
18.09	2.98179
18.1	2.97389
18.11	2.95449
18.12	2.94856
18.13	2.966
18.14	2.97587
18.15	2.98968
18.16	2.95909
18.17	2.97389
18.18	2.96304
18.19	2.97587
18.2	2.97093
18.21	2.95087
18.22	2.94626
18.23	2.95251
18.24	2.93968
18.25	2.94889
18.26	2.94856
18.27	2.94231
18.28	2.99692
18.29	2.9683
18.3	2.99297
18.31	2.97587
18.32	2.97554
18.33	2.9887
18.34	2.97653
18.35	2.99955
18.36	2.97949
18.37	2.96304
18.38	2.9808
18.39	2.98311
18.4	2.94297
18.41	2.94462
18.42	2.96534
18.43	2.94955
18.44	2.98047
18.45	2.94231
18.46	2.96863
18.47	2.94133
18.48	2.94626
18.49	2.95942
18.5	2.94297
18.51	2.95778
18.52	2.95909
18.53	2.94725
18.54	2.97422
18.55	2.93903
18.56	2.92817
18.57	2.96863
18.58	2.92817
18.59	2.95449
18.6	2.96764
18.61	2.93935
18.62	2.94725
18.63	2.98014
18.64	2.95909
18.65	2.9683
18.66	2.94626
18.67	2.94922
18.68	2.95218
18.69	2.9512
18.7	2.96238
18.71	2.95153
18.72	2.93541
18.73	2.94824
18.74	2.96863
18.75	2.94495
18.76	2.99528
18.77	2.96732
18.78	2.96435
18.79	2.93771
18.8	2.93903
18.81	2.96008
18.82	2.96468
18.83	2.92027
18.84	2.92751
18.85	2.99199
18.86	2.94659
18.87	2.91238
18.88	2.93804
18.89	2.97455
18.9	2.94264
18.91	2.97258
18.92	2.9285
18.93	2.93376
18.94	2.95383
18.95	2.93606
18.96	2.94922
18.97	2.92883
18.98	2.92817
18.99	2.94264
19	2.95843
19.01	2.98738
19.02	2.95021
19.03	2.95284
19.04	2.95416
19.05	2.9581
19.06	2.94791
19.07	2.95778
19.08	2.94692
19.09	2.96403
19.1	2.94495
19.11	2.97817
19.12	2.95416
19.13	2.9512
19.14	2.96172
19.15	2.95514
19.16	2.91863
19.17	2.96732
19.18	2.95514
19.19	2.93903
19.2	2.9285
19.21	2.93639
19.22	2.93672
19.23	2.93376
19.24	2.95745
19.25	2.93639
19.26	2.96797
19.27	2.96995
19.28	2.94462
19.29	2.95317
19.3	2.97718
19.31	2.941
19.32	2.95778
19.33	2.98672
19.34	2.98541
19.35	2.96666
19.36	2.96337
19.37	2.941
19.38	2.93771
19.39	2.94528
19.4	2.92554
19.41	2.94297
19.42	2.95284
19.43	2.93672
19.44	2.96172
19.45	2.94199
19.46	2.93804
19.47	2.96732
19.48	2.94955
19.49	2.95482
19.5	2.95778
19.51	2.99429
19.52	2.97225
19.53	2.93705
19.54	2.94199
19.55	2.95449
19.56	2.97192
19.57	2.9581
19.58	2.93409
19.59	2.941
19.6	2.94988
19.61	2.96271
19.62	2.98475
19.63	2.94528
19.64	2.93245
19.65	2.94297
19.66	2.95021
19.67	2.94791
19.68	2.95547
19.69	2.97488
19.7	2.94231
19.71	2.95547
19.72	2.941
19.73	2.93245
19.74	2.92258
19.75	2.94166
19.76	2.93903
19.77	2.96534
19.78	2.92981
19.79	2.94889
19.8	2.95054
19.81	2.97126
19.82	2.97653
19.83	2.95942
19.84	2.93804
19.85	2.94495
19.86	2.94231
19.87	2.9433
19.88	2.94001
19.89	2.96666
19.9	2.95218
19.91	2.92093
19.92	2.97258
19.93	2.96567
19.94	2.95482
19.95	2.94988
19.96	2.9512
19.97	2.96074
19.98	2.97159
19.99	2.9456
20	2.97093
20.01	2.95679
20.02	2.94593
20.03	2.91271
20.04	2.92718
20.05	2.93376
20.06	2.94363
20.07	2.96074
20.08	3.00153
20.09	2.93343
20.1	2.90416
20.11	2.91633
20.12	2.94199
20.13	2.94758
20.14	2.96666
20.15	2.97883
20.16	2.96468
20.17	2.99034
20.18	2.95613
20.19	2.93047
20.2	2.92356
20.21	2.94626
20.22	2.96666
20.23	2.94824
20.24	2.93212
20.25	2.94166
20.26	2.96797
20.27	2.94659
20.28	2.91534
20.29	2.9581
20.3	2.97159
20.31	2.96403
20.32	2.94462
20.33	2.966
20.34	2.9637
20.35	2.92916
20.36	2.96501
20.37	2.93376
20.38	2.92751
20.39	2.96863
20.4	2.96863
20.41	2.96797
20.42	2.98047
20.43	2.95778
20.44	2.95153
20.45	2.97455
20.46	2.96435
20.47	2.92685
20.48	2.94166
20.49	2.94692
20.5	2.95284
20.51	2.96074
20.52	2.96797
20.53	2.9512
20.54	2.98343
20.55	2.93935
20.56	2.93574
20.57	2.92751
20.58	2.91764
20.59	2.95975
20.6	2.99626
20.61	2.97324
20.62	2.96764
20.63	2.94758
20.64	2.97653
20.65	2.96172
20.66	2.94593
20.67	2.94791
20.68	2.98672
20.69	2.97389
20.7	2.93541
20.71	2.94922
20.72	2.94528
20.73	2.95547
20.74	2.96074
20.75	2.94824
20.76	2.96074
20.77	2.93113
20.78	2.92192
20.79	2.95185
20.8	2.97324
20.81	2.92126
20.82	2.93705
20.83	2.9785
20.84	2.92718
20.85	2.941
20.86	2.96633
20.87	2.92521
20.88	2.95317
20.89	2.9581
20.9	2.95251
20.91	2.93475
20.92	2.94856
20.93	2.95547
20.94	2.93376
20.95	2.98212
20.96	2.94593
20.97	2.92027
20.98	2.94363
20.99	2.91896
21	2.93672
21.01	2.94133
21.02	2.93343
21.03	2.92817
21.04	2.93771
21.05	2.94264
21.06	2.96139
21.07	2.97521
21.08	2.95482
21.09	2.94199
21.1	2.94528
21.11	2.91073
21.12	2.91633
21.13	2.96666
21.14	2.94988
21.15	2.94593
21.16	2.94363
21.17	2.94396
21.18	2.94495
21.19	2.94429
21.2	2.95317
21.21	2.94001
21.22	2.95613
21.23	2.95514
21.24	2.96435
21.25	2.9637
21.26	2.99955
21.27	2.99067
21.28	2.95416
21.29	2.98047
21.3	2.96995
21.31	2.94166
21.32	2.95679
21.33	2.95679
21.34	2.95054
21.35	2.95745
21.36	2.97686
21.37	2.97028
21.38	2.93935
21.39	2.94692
21.4	2.90975
21.41	2.92324
21.42	2.93047
21.43	2.96337
21.44	2.92916
21.45	2.94199
21.46	2.93146
21.47	2.97455
21.48	2.94462
21.49	2.94297
21.5	2.95054
21.51	2.9558
21.52	2.92949
21.53	2.93606
21.54	2.92817
21.55	2.94001
21.56	2.91731
21.57	2.91534
21.58	2.96797
21.59	2.95514
21.6	2.93113
21.61	2.94593
21.62	2.95416
21.63	2.94824
21.64	2.96074
21.65	2.95185
21.66	2.96107
21.67	2.95185
21.68	2.92258
21.69	2.94133
21.7	2.93541
21.71	2.9433
21.72	2.94758
21.73	2.95087
21.74	2.95153
21.75	2.95514
21.76	2.93508
21.77	2.92192
21.78	2.9262
21.79	2.98311
21.8	2.96534
21.81	2.96962
21.82	2.94166
21.83	2.93837
21.84	2.94955
21.85	2.95646
21.86	2.9285
21.87	2.9331
21.88	2.93475
21.89	2.92883
21.9	2.9308
21.91	2.91534
21.92	2.92685
21.93	2.94922
21.94	2.941
21.95	2.92981
21.96	2.96107
21.97	2.96271
21.98	2.94659
21.99	2.95317
22	2.93113
22.01	2.94133
22.02	2.94824
22.03	2.95843
22.04	2.96205
22.05	2.92817
22.06	2.93738
22.07	2.95317
22.08	2.93047
22.09	2.92324
22.1	2.94593
22.11	2.93179
22.12	2.97554
22.13	2.95054
22.14	2.95449
22.15	2.93212
22.16	2.92652
22.17	2.91172
22.18	2.90054
22.19	2.9308
22.2	2.9433
22.21	2.94067
22.22	2.92488
22.23	2.93508
22.24	2.96468
22.25	2.94692
22.26	2.94955
22.27	2.93837
22.28	2.92291
22.29	2.94528
22.3	2.93837
22.31	2.95416
22.32	2.91929
22.33	2.95185
22.34	2.9535
22.35	2.93935
22.36	2.94199
22.37	2.96403
22.38	2.95153
22.39	2.95514
22.4	2.99725
22.41	2.9512
22.42	2.95942
22.43	2.95876
22.44	2.96501
22.45	2.9262
22.46	2.94297
22.47	2.94396
22.48	2.95153
22.49	2.93574
22.5	2.93574
22.51	2.91008
22.52	2.9206
22.53	2.93771
22.54	2.9285
22.55	2.95646
22.56	2.92159
22.57	2.92751
22.58	2.91633
22.59	2.94133
22.6	2.93212
22.61	2.94231
22.62	2.9637
22.63	2.93804
22.64	2.93541
22.65	2.95185
22.66	2.96403
22.67	2.92027
22.68	2.93606
22.69	2.97192
22.7	2.93179
22.71	2.9285
22.72	2.91633
22.73	2.941
22.74	2.96172
22.75	2.91041
22.76	2.94231
22.77	2.88738
22.78	2.91995
22.79	2.96205
22.8	2.99922
22.81	2.94988
22.82	2.95021
22.83	2.94922
22.84	2.90185
22.85	2.94001
22.86	2.96797
22.87	2.94396
22.88	2.92817
22.89	2.94791
22.9	2.92949
22.91	2.91501
22.92	2.93376
22.93	2.9387
22.94	2.92225
22.95	2.91995
22.96	2.92817
22.97	2.9137
22.98	2.93837
22.99	2.94034
23	2.97488
23.01	2.96764
23.02	2.93475
23.03	2.91929
23.04	2.90416
23.05	2.92949
23.06	2.92652
23.07	2.94429
23.08	2.93738
23.09	2.96205
23.1	2.966
23.11	2.93639
23.12	2.92883
23.13	2.95449
23.14	2.95514
23.15	2.97982
23.16	2.95778
23.17	2.93508
23.18	2.91666
23.19	2.92258
23.2	2.96567
23.21	2.94659
23.22	2.93771
23.23	2.96304
23.24	2.94791
23.25	2.94133
23.26	2.95251
23.27	2.97422
23.28	2.91929
23.29	2.94725
23.3	2.92652
23.31	2.92652
23.32	2.96764
23.33	2.95778
23.34	2.95975
23.35	2.95482
23.36	2.95514
23.37	2.92685
23.38	2.92455
23.39	2.91073
23.4	2.94462
23.41	2.94396
23.42	2.94264
23.43	2.95284
23.44	2.93508
23.45	2.95482
23.46	2.93837
23.47	2.93804
23.48	2.96238
23.49	2.9387
23.5	2.93442
23.51	2.93804
23.52	2.9558
23.53	2.93442
23.54	2.9456
23.55	2.95317
23.56	2.9387
23.57	2.95482
23.58	2.9933
23.59	2.93705
23.6	2.92554
23.61	2.9137
23.62	2.95876
23.63	2.98508
23.64	2.95613
23.65	2.93376
23.66	2.9637
23.67	2.95383
23.68	2.91106
23.69	2.91106
23.7	2.95876
23.71	2.96962
23.72	2.94889
23.73	2.93672
23.74	2.93738
23.75	2.96337
23.76	2.95909
23.77	2.94955
23.78	2.93475
23.79	2.93409
23.8	2.92981
23.81	2.93639
23.82	2.91633
23.83	2.92751
23.84	2.94001
23.85	2.95514
23.86	2.94199
23.87	2.92192
23.88	2.9081
23.89	2.92981
23.9	2.93935
23.91	2.95054
23.92	2.95054
23.93	2.93245
23.94	2.91633
23.95	2.93277
23.96	2.94363
23.97	2.93771
23.98	2.90613
23.99	2.95679
24	2.92685
24.01	2.92258
24.02	2.93442
24.03	2.95843
24.04	2.99528
24.05	2.92718
24.06	2.96107
24.07	2.94692
24.08	2.92324
24.09	2.92093
24.1	2.90843
24.11	2.94856
24.12	2.9331
24.13	2.94824
24.14	2.94264
24.15	2.94889
24.16	2.94988
24.17	2.94824
24.18	2.9456
24.19	2.95021
24.2	2.90909
24.21	2.95317
24.22	2.94264
24.23	2.93179
24.24	2.93014
24.25	2.94528
24.26	2.91534
24.27	2.92027
24.28	2.94363
24.29	2.92981
24.3	2.92817
24.31	2.93409
24.32	2.93245
24.33	2.91896
24.34	2.92389
24.35	2.90547
24.36	2.93212
24.37	2.89166
24.38	2.92093
24.39	2.91698
24.4	2.93409
24.41	2.94889
24.42	2.94133
24.43	2.93409
24.44	2.95712
24.45	2.96074
24.46	2.95712
24.47	2.95021
24.48	2.94001
24.49	2.9433
24.5	2.9206
24.51	2.91139
24.52	2.95482
24.53	2.92784
24.54	2.91073
24.55	2.94429
24.56	2.89462
24.57	2.9285
24.58	2.92126
24.59	2.94528
24.6	2.97061
24.61	2.91863
24.62	2.9058
24.63	2.93935
24.64	2.941
24.65	2.94462
24.66	2.91633
24.67	2.94001
24.68	2.92587
24.69	2.93245
24.7	2.92356
24.71	2.95745
24.72	2.95021
24.73	2.93903
24.74	2.941
24.75	2.93113
24.76	2.92817
24.77	2.96107
24.78	2.93903
24.79	2.93113
24.8	2.9183
24.81	2.93903
24.82	2.93935
24.83	2.94264
24.84	2.90646
24.85	2.94922
24.86	2.95054
24.87	2.9433
24.88	2.92324
24.89	2.94067
24.9	2.9183
24.91	2.91863
24.92	2.94264
24.93	2.95284
24.94	2.92817
24.95	2.92521
24.96	2.916
24.97	2.9433
24.98	2.93606
24.99	2.92784
25	2.95712
25.01	2.95843
25.02	2.94659
25.03	2.9433
25.04	2.91863
25.05	2.93672
25.06	2.95284
25.07	2.97784
25.08	2.94396
25.09	2.94593
25.1	2.9433
25.11	2.94495
25.12	2.9387
25.13	2.92324
25.14	2.93047
25.15	2.94363
25.16	2.96929
25.17	2.93968
25.18	2.91995
25.19	2.91698
25.2	2.92389
25.21	2.91863
25.22	2.95843
25.23	2.94692
25.24	2.9035
25.25	2.9137
25.26	2.92916
25.27	2.94363
25.28	2.99429
25.29	2.90514
25.3	2.94988
25.31	2.93014
25.32	2.93014
25.33	2.92356
25.34	2.94856
25.35	2.94758
25.36	2.90152
25.37	2.90514
25.38	2.94856
25.39	2.93047
25.4	2.94626
25.41	2.93113
25.42	2.90514
25.43	2.93804
25.44	2.94593
25.45	2.93508
25.46	2.94133
25.47	2.94495
25.48	2.93376
25.49	2.92652
25.5	2.94988
25.51	2.93245
25.52	2.9387
25.53	2.9206
25.54	2.92916
25.55	2.92192
25.56	2.92718
25.57	2.92093
25.58	2.93574
25.59	2.94297
25.6	2.96929
25.61	2.95646
25.62	2.91962
25.63	2.94231
25.64	2.9512
25.65	2.9887
25.66	2.9683
25.67	2.95218
25.68	2.92652
25.69	2.9433
25.7	2.91731
25.71	2.941
25.72	2.91666
25.73	2.94429
25.74	2.9331
25.75	2.9206
25.76	2.92751
25.77	2.93245
25.78	2.95843
25.79	2.93639
25.8	2.92718
25.81	2.91008
25.82	2.93804
25.83	2.91073
25.84	2.92554
25.85	2.94791
25.86	2.92488
25.87	2.916
25.88	2.93376
25.89	2.93245
25.9	2.95021
25.91	2.91797
25.92	2.92751
25.93	2.92883
25.94	2.92916
25.95	2.94758
25.96	2.94495
25.97	2.92981
25.98	2.93442
25.99	2.93672
26	2.94199
26.01	2.96107
26.02	2.92093
26.03	2.91666
26.04	2.95416
26.05	2.95284
26.06	2.91435
26.07	2.92685
26.08	2.96238
26.09	2.90416
26.1	2.9262
26.11	2.94725
26.12	2.94067
26.13	2.94067
26.14	2.93672
26.15	2.92916
26.16	2.90942
26.17	2.92916
26.18	2.94824
26.19	2.90185
26.2	2.92521
26.21	2.95416
26.22	2.9331
26.23	2.96435
26.24	2.98442
26.25	2.92554
26.26	2.94067
26.27	2.96732
26.28	2.93968
26.29	2.95745
26.3	2.93409
26.31	2.94922
26.32	2.94495
26.33	2.94396
26.34	2.92554
26.35	2.941
26.36	2.92389
26.37	2.92192
26.38	2.91863
26.39	2.94593
26.4	2.96074
26.41	2.91962
26.42	2.91435
26.43	2.90547
26.44	2.93277
26.45	2.92389
26.46	2.93837
26.47	2.9331
26.48	2.95547
26.49	2.96107
26.5	2.9308
26.51	2.92488
26.52	2.94725
26.53	2.93639
26.54	2.916
26.55	2.9387
26.56	2.95778
26.57	2.92784
26.58	2.93442
26.59	2.91238
26.6	2.92949
26.61	2.93343
26.62	2.95646
26.63	2.90021
26.64	2.90876
26.65	2.93935
26.66	2.94429
26.67	2.93245
26.68	2.94988
26.69	2.93179
26.7	2.91534
26.71	2.96271
26.72	2.92817
26.73	2.93606
26.74	2.91337
26.75	2.95416
26.76	2.93639
26.77	2.91896
26.78	2.94199
26.79	2.92356
26.8	2.95514
26.81	2.93672
26.82	2.90777
26.83	2.94889
26.84	2.93738
26.85	2.93672
26.86	2.96337
26.87	2.93014
26.88	2.92652
26.89	2.92126
26.9	2.93409
26.91	2.91205
26.92	2.92521
26.93	2.91929
26.94	2.93606
26.95	2.93212
26.96	2.93771
26.97	2.92324
26.98	2.95416
26.99	2.94922
27	2.91929
27.01	2.90284
27.02	2.93409
27.03	2.94231
27.04	2.95679
27.05	2.95679
27.06	2.94264
27.07	2.92225
27.08	2.88968
27.09	2.93475
27.1	2.92093
27.11	2.94495
27.12	2.91073
27.13	2.92324
27.14	2.92159
27.15	2.89791
27.16	2.91435
27.17	2.96764
27.18	2.95054
27.19	2.96172
27.2	2.94166
27.21	2.92587
27.22	2.92488
27.23	2.97784
27.24	2.93047
27.25	2.94791
27.26	2.95843
27.27	2.94264
27.28	2.94133
27.29	2.93376
27.3	2.96732
27.31	2.94396
27.32	2.9512
27.33	2.9581
27.34	2.91731
27.35	2.93705
27.36	2.92126
27.37	2.94988
27.38	2.92587
27.39	2.95054
27.4	2.92718
27.41	2.94166
27.42	2.91205
27.43	2.92817
27.44	2.88935
27.45	2.93475
27.46	2.92685
27.47	2.92192
27.48	2.94889
27.49	2.94922
27.5	2.92817
27.51	2.95317
27.52	2.96929
27.53	2.91534
27.54	2.93113
27.55	2.93343
27.56	2.95449
27.57	2.96304
27.58	2.94034
27.59	2.98212
27.6	2.93014
27.61	2.94264
27.62	2.94528
27.63	2.94922
27.64	2.93903
27.65	2.90646
27.66	2.93903
27.67	2.94001
27.68	2.91402
27.69	2.90909
27.7	2.916
27.71	2.92291
27.72	2.9137
27.73	2.94133
27.74	2.93541
27.75	2.92356
27.76	2.92488
27.77	2.93475
27.78	2.92455
27.79	2.94199
27.8	2.91962
27.81	2.9137
27.82	2.93245
27.83	2.92784
27.84	2.92817
27.85	2.94659
27.86	2.96074
27.87	2.92751
27.88	2.92258
27.89	2.93376
27.9	2.94922
27.91	2.92488
27.92	2.9308
27.93	2.96172
27.94	2.93968
27.95	2.94462
27.96	2.94626
27.97	2.91633
27.98	2.93047
27.99	2.92916
28	2.93113
28.01	2.93113
28.02	2.93179
28.03	2.92883
28.04	2.95975
28.05	2.94462
28.06	2.9081
28.07	2.91501
28.08	2.89988
28.09	2.93903
28.1	2.95054
28.11	2.92093
28.12	2.92718
28.13	2.93672
28.14	2.93574
28.15	2.94725
28.16	2.92093
28.17	2.92883
28.18	2.92159
28.19	2.91534
28.2	2.93738
28.21	2.92817
28.22	2.91435
28.23	2.93442
28.24	2.92981
28.25	2.91139
28.26	2.92652
28.27	2.92488
28.28	2.94001
28.29	2.92751
28.3	2.93968
28.31	2.92784
28.32	2.91172
28.33	2.90777
28.34	2.92488
28.35	2.93179
28.36	2.92291
28.37	2.90975
28.38	2.91896
28.39	2.92685
28.4	2.95054
28.41	2.92159
28.42	2.92949
28.43	2.93639
28.44	2.93804
28.45	2.93442
28.46	2.93179
28.47	2.93376
28.48	2.94758
28.49	2.93541
28.5	2.91863
28.51	2.93837
28.52	2.95613
28.53	2.95778
28.54	2.9387
28.55	2.96074
28.56	2.97061
28.57	2.97422
28.58	2.96403
28.59	2.94758
28.6	2.95317
28.61	2.94001
28.62	2.93212
28.63	2.95087
28.64	2.92291
28.65	2.93771
28.66	2.95087
28.67	2.90975
28.68	2.91106
28.69	2.93179
28.7	2.93574
28.71	2.94199
28.72	2.9456
28.73	2.93047
28.74	2.95185
28.75	2.94856
28.76	2.97488
28.77	2.94067
28.78	2.92159
28.79	2.95514
28.8	2.94001
28.81	2.96139
28.82	2.93606
28.83	2.9035
28.84	2.92126
28.85	2.93541
28.86	2.93376
28.87	2.95679
28.88	2.91797
28.89	2.91337
28.9	2.93705
28.91	2.91633
28.92	2.941
28.93	2.93639
28.94	2.92422
28.95	2.92422
28.96	2.95153
28.97	2.9637
28.98	2.93672
28.99	2.94922
29	2.93672
29.01	2.90745
29.02	2.94922
29.03	2.96271
29.04	2.93903
29.05	2.94955
29.06	2.94067
29.07	2.92784
29.08	2.93771
29.09	2.95087
29.1	2.92784
29.11	2.92685
29.12	2.91567
29.13	2.9558
29.14	2.94856
29.15	2.91962
29.16	2.92554
29.17	2.92027
29.18	2.92192
29.19	2.94199
29.2	2.92159
29.21	2.91962
29.22	2.93245
29.23	2.92093
29.24	2.93245
29.25	2.94166
29.26	2.92455
29.27	2.93277
29.28	2.91106
29.29	2.89988
29.3	2.94133
29.31	2.96172
29.32	2.93146
29.33	2.92389
29.34	2.94067
29.35	2.92225
29.36	2.90942
29.37	2.91764
29.38	2.92883
29.39	2.9683
29.4	2.96008
29.41	2.92455
29.42	2.92324
29.43	2.93903
29.44	2.91402
29.45	2.9512
29.46	2.9456
29.47	2.93343
29.48	2.93903
29.49	2.93343
29.5	2.92225
29.51	2.91666
29.52	2.90712
29.53	2.90087
29.54	2.93179
29.55	2.93541
29.56	2.9206
29.57	2.92192
29.58	2.90185
29.59	2.9206
29.6	2.91797
29.61	2.92126
29.62	2.90942
29.63	2.96435
29.64	2.95942
29.65	2.9433
29.66	2.93047
29.67	2.93212
29.68	2.93475
29.69	2.93376
29.7	2.91863
29.71	2.94133
29.72	2.94429
29.73	2.96238
29.74	2.94001
29.75	2.93508
29.76	2.94626
29.77	2.94725
29.78	2.9206
29.79	2.92981
29.8	2.90777
29.81	2.97159
29.82	2.95054
29.83	2.91962
29.84	2.94396
29.85	2.95514
29.86	2.89692
29.87	2.92192
29.88	2.91698
29.89	2.9206
29.9	2.91929
29.91	2.92324
29.92	2.9308
29.93	2.93146
29.94	2.92291
29.95	2.95778
29.96	2.94034
29.97	2.94495
29.98	2.95843
29.99	2.95712
30	2.94067
30.01	2.96435
30.02	2.92126
30.03	2.93212
30.04	2.94692
30.05	2.95087
30.06	2.91896
30.07	2.9581
30.08	2.94429
30.09	2.90712
30.1	2.92488
30.11	2.92389
30.12	2.93245
30.13	2.9387
30.14	2.90843
30.15	2.95284
30.16	2.98475
30.17	2.94001
30.18	2.93047
30.19	2.9081
30.2	2.9262
30.21	2.92389
30.22	2.93047
30.23	2.93047
30.24	2.95087
30.25	2.95317
30.26	2.94166
30.27	2.93343
30.28	2.93343
30.29	2.92949
30.3	2.92225
30.31	2.92751
30.32	2.93146
30.33	2.91863
30.34	2.94626
30.35	2.93442
30.36	2.91797
30.37	2.90185
30.38	2.90054
30.39	2.91106
30.4	2.9331
30.41	2.91698
30.42	2.9331
30.43	2.94528
30.44	2.89725
30.45	2.9081
30.46	2.94758
30.47	2.94889
30.48	2.93508
30.49	2.9183
30.5	2.9558
30.51	2.9535
30.52	2.92356
30.53	2.94495
30.54	2.93212
30.55	2.93672
30.56	2.91008
30.57	2.90712
30.58	2.94626
30.59	2.92718
30.6	2.91797
30.61	2.9331
30.62	2.94166
30.63	2.93212
30.64	2.92455
30.65	2.90745
30.66	2.941
30.67	2.90613
30.68	2.90481
30.69	2.88738
30.7	2.93442
30.71	2.93179
30.72	2.92324
30.73	2.92949
30.74	2.93837
30.75	2.93047
30.76	2.91073
30.77	2.8729
30.78	2.93541
30.79	2.92389
30.8	2.95087
30.81	2.91863
30.82	2.94692
30.83	2.93146
30.84	2.94264
30.85	2.95712
30.86	2.90843
30.87	2.92521
30.88	2.93672
30.89	2.94495
30.9	2.94001
30.91	2.95416
30.92	2.94758
30.93	2.91304
30.94	2.91764
30.95	2.94462
30.96	2.92291
30.97	2.91041
30.98	2.9637
30.99	2.9285
31	2.95021
31.01	2.94429
31.02	2.92126
31.03	2.92422
31.04	2.93903
31.05	2.91238
31.06	2.93343
31.07	2.93672
31.08	2.9387
31.09	2.94429
31.1	2.95087
31.11	2.93771
31.12	2.95185
31.13	2.95909
31.14	2.94528
31.15	2.92291
31.16	2.93442
31.17	2.93672
31.18	2.91139
31.19	2.9285
31.2	2.94067
31.21	2.91962
31.22	2.90646
31.23	2.93672
31.24	2.93212
31.25	2.94001
31.26	2.9206
31.27	2.92192
31.28	2.91633
31.29	2.93639
31.3	2.92685
31.31	2.9308
31.32	2.92159
31.33	2.92422
31.34	2.91764
31.35	2.89889
31.36	2.92488
31.37	2.93541
31.38	2.9433
31.39	2.95712
31.4	2.96008
31.41	2.941
31.42	2.96995
31.43	2.88376
31.44	2.93442
31.45	2.95218
31.46	2.92817
31.47	2.92587
31.48	2.90942
31.49	2.93508
31.5	2.95416
31.51	2.93705
31.52	2.95054
31.53	2.93277
31.54	2.93245
31.55	2.94824
31.56	2.96172
31.57	2.92291
31.58	2.93442
31.59	2.94363
31.6	2.916
31.61	2.93705
31.62	2.91435
31.63	2.94495
31.64	2.92126
31.65	2.92324
31.66	2.91402
31.67	2.94955
31.68	2.92192
31.69	2.92587
31.7	2.92027
31.71	2.92389
31.72	2.89823
31.73	2.92685
31.74	2.9808
31.75	2.96107
31.76	2.92587
31.77	2.90843
31.78	2.94791
31.79	2.93935
31.8	2.91534
31.81	2.88244
31.82	2.89462
31.83	2.93804
31.84	2.96304
31.85	2.93277
31.86	2.89297
31.87	2.9058
31.88	2.93574
31.89	2.93212
31.9	2.90613
31.91	2.90777
31.92	2.91468
31.93	2.89626
31.94	2.91238
31.95	2.91008
31.96	2.91633
31.97	2.91731
31.98	2.92126
31.99	2.91567
32	2.9035
32.01	2.9183
32.02	2.92652
32.03	2.94725
32.04	2.93277
32.05	2.92159
32.06	2.90416
32.07	2.92916
32.08	2.90547
32.09	2.91337
32.1	2.93837
32.11	2.9308
32.12	2.9331
32.13	2.91073
32.14	2.91073
32.15	2.89133
32.16	2.94199
32.17	2.9308
32.18	2.90646
32.19	2.91238
32.2	2.90152
32.21	2.94034
32.22	2.91205
32.23	2.90218
32.24	2.91073
32.25	2.91205
32.26	2.90119
32.27	2.94626
32.28	2.93903
32.29	2.93771
32.3	2.93343
32.31	2.90975
32.32	2.96041
32.33	2.94758
32.34	2.90679
32.35	2.96699
32.36	2.94692
32.37	2.95054
32.38	2.92817
32.39	2.94067
32.4	2.95843
32.41	2.9262
32.42	2.92817
32.43	2.916
32.44	2.92422
32.45	2.9262
32.46	2.94166
32.47	2.93738
32.48	2.94692
32.49	2.92258
32.5	2.88804
32.51	2.92027
32.52	2.91271
32.53	2.90613
32.54	2.94495
32.55	2.92521
32.56	2.88837
32.57	2.89725
32.58	2.94725
32.59	2.9433
32.6	2.94199
32.61	2.9433
32.62	2.94001
32.63	2.91731
32.64	2.93113
32.65	2.90942
32.66	2.94067
32.67	2.9137
32.68	2.95449
32.69	2.93968
32.7	2.90909
32.71	2.93804
32.72	2.94231
32.73	2.92883
32.74	2.92751
32.75	2.92324
32.76	2.93508
32.77	2.92916
32.78	2.93903
32.79	2.90679
32.8	2.94067
32.81	2.93475
32.82	2.93343
32.83	2.9512
32.84	2.96238
32.85	2.91731
32.86	2.95514
32.87	2.96107
32.88	2.93343
32.89	2.94264
32.9	2.92159
32.91	2.93146
32.92	2.93771
32.93	2.92784
32.94	2.92652
32.95	2.95547
32.96	2.93212
32.97	2.93343
32.98	2.91995
32.99	2.92093
33	2.89626
33.01	2.92389
33.02	2.94067
33.03	2.93409
33.04	2.93508
33.05	2.90087
33.06	2.91666
33.07	2.91501
33.08	2.89527
33.09	2.90185
33.1	2.96403
33.11	2.93113
33.12	2.91698
33.13	2.9206
33.14	2.92422
33.15	2.93113
33.16	2.97192
33.17	2.96271
33.18	2.95679
33.19	2.91633
33.2	2.9535
33.21	2.95909
33.22	2.94659
33.23	2.90547
33.24	2.92291
33.25	2.92784
33.26	2.9331
33.27	2.92126
33.28	2.93935
33.29	2.91008
33.3	2.9433
33.31	2.92258
33.32	2.92389
33.33	2.93113
33.34	2.94199
33.35	2.93343
33.36	2.92685
33.37	2.93639
33.38	2.93639
33.39	2.93508
33.4	2.95383
33.41	2.96797
33.42	2.90547
33.43	2.90909
33.44	2.92093
33.45	2.91896
33.46	2.93376
33.47	2.92784
33.48	2.94166
33.49	2.95942
33.5	2.93047
33.51	2.9206
33.52	2.92981
33.53	2.93212
33.54	2.92587
33.55	2.93245
33.56	2.94725
33.57	2.92652
33.58	2.94001
33.59	2.92981
33.6	2.97883
33.61	2.94528
33.62	2.94297
33.63	2.93146
33.64	2.93409
33.65	2.96074
33.66	2.94626
33.67	2.96732
33.68	2.96699
33.69	2.9512
33.7	2.9456
33.71	2.95942
33.72	2.93245
33.73	2.9331
33.74	2.94133
33.75	2.92356
33.76	2.95416
33.77	2.93672
33.78	2.9331
33.79	2.93606
33.8	2.91995
33.81	2.93277
33.82	2.91139
33.83	2.91008
33.84	2.95087
33.85	2.90383
33.86	2.91435
33.87	2.95778
33.88	2.94692
33.89	2.96041
33.9	2.9433
33.91	2.92356
33.92	2.91501
33.93	2.92093
33.94	2.92718
33.95	2.92291
33.96	2.93541
33.97	2.93212
33.98	2.95087
33.99	2.94297
34	2.92817
34.01	2.91666
34.02	2.92126
34.03	2.93935
34.04	2.93376
34.05	2.92422
34.06	2.90218
34.07	2.90646
34.08	2.92126
34.09	2.92225
34.1	2.93376
34.11	2.88935
34.12	2.89593
34.13	2.90909
34.14	2.9387
34.15	2.93245
34.16	2.92685
34.17	2.9433
34.18	2.92093
34.19	2.96041
34.2	2.93376
34.21	2.93837
34.22	2.92949
34.23	2.97357
34.24	2.96501
34.25	2.96863
34.26	2.92488
34.27	2.93574
34.28	2.94922
34.29	2.91633
34.3	2.94824
34.31	2.95021
34.32	2.95745
34.33	2.97521
34.34	2.92883
34.35	2.96995
34.36	2.92751
34.37	2.92225
34.38	2.92652
34.39	2.93014
34.4	2.94396
34.41	2.91534
34.42	2.88968
34.43	2.92916
34.44	2.95646
34.45	2.93771
34.46	2.9581
34.47	2.93343
34.48	2.90975
34.49	2.93672
34.5	2.93508
34.51	2.94363
34.52	2.95613
34.53	2.91271
34.54	2.91995
34.55	2.96041
34.56	2.95679
34.57	2.93245
34.58	2.90054
34.59	2.92225
34.6	2.93672
34.61	2.96633
34.62	2.9308
34.63	2.93113
34.64	2.92587
34.65	2.96567
34.66	2.92685
34.67	2.93343
34.68	2.93343
34.69	2.91666
34.7	2.93146
34.71	2.90745
34.72	2.92817
34.73	2.88738
34.74	2.93475
34.75	2.92455
34.76	2.94363
34.77	2.92685
34.78	2.89922
34.79	2.92521
34.8	2.93771
34.81	2.90152
34.82	2.90679
34.83	2.91139
34.84	2.94593
34.85	2.93146
34.86	2.91172
34.87	2.92784
34.88	2.90547
34.89	2.90876
34.9	2.94133
34.91	2.93738
34.92	2.91008
34.93	2.93277
34.94	2.91764
34.95	2.9183
34.96	2.93804
34.97	2.93541
34.98	2.90745
34.99	2.91337
35	2.93903
35.01	2.916
35.02	2.89034
35.03	2.91271
35.04	2.9058
35.05	2.93738
35.06	2.92949
35.07	2.94528
35.08	2.95482
35.09	2.93245
35.1	2.93277
35.11	2.94692
35.12	2.89955
35.13	2.91666
35.14	2.89791
35.15	2.88902
35.16	2.88146
35.17	2.93245
35.18	2.91962
35.19	2.91962
35.2	2.90679
35.21	2.92916
35.22	2.94988
35.23	2.96205
35.24	2.92751
35.25	2.91238
35.26	2.91863
35.27	2.92093
35.28	2.89791
35.29	2.93179
35.3	2.98113
35.31	2.92652
35.32	2.94922
35.33	2.96074
35.34	2.92521
35.35	2.91139
35.36	2.9262
35.37	2.93738
35.38	2.95876
35.39	2.90712
35.4	2.9183
35.41	2.90481
35.42	2.91633
35.43	2.93047
35.44	2.9206
35.45	2.9285
35.46	2.93245
35.47	2.92422
35.48	2.91139
35.49	2.91337
35.5	2.92981
35.51	2.9512
35.52	2.92192
35.53	2.90909
35.54	2.90514
35.55	2.95383
35.56	2.9262
35.57	2.90284
35.58	2.91797
35.59	2.92521
35.6	2.91008
35.61	2.93277
35.62	2.94067
35.63	2.92784
35.64	2.92291
35.65	2.90514
35.66	2.91534
35.67	2.92324
35.68	2.89429
35.69	2.93968
35.7	2.94363
35.71	2.93343
35.72	2.92751
35.73	2.9331
35.74	2.9308
35.75	2.92192
35.76	2.92718
35.77	2.93343
35.78	2.92159
35.79	2.93376
35.8	2.93606
35.81	2.89626
35.82	2.89889
35.83	2.93672
35.84	2.97159
35.85	2.97389
35.86	2.9456
35.87	2.93804
35.88	2.91238
35.89	2.95416
35.9	2.91567
35.91	2.90909
35.92	2.93771
35.93	2.91797
35.94	2.91271
35.95	2.9183
35.96	2.93475
35.97	2.94363
35.98	2.89791
35.99	2.91337
36	2.94626
36.01	2.91633
36.02	2.92225
36.03	2.92883
36.04	2.92652
36.05	2.91435
36.06	2.93606
36.07	2.92751
36.08	2.93146
36.09	2.93606
36.1	2.94034
36.11	2.91106
36.12	2.91995
36.13	2.9512
36.14	2.93837
36.15	2.92784
36.16	2.93771
36.17	2.93508
36.18	2.92488
36.19	2.95284
36.2	2.93837
36.21	2.9433
36.22	2.95843
36.23	2.93541
36.24	2.8933
36.25	2.90777
36.26	2.93738
36.27	2.90646
36.28	2.90975
36.29	2.91271
36.3	2.93574
36.31	2.93409
36.32	2.95613
36.33	2.93014
36.34	2.93508
36.35	2.93837
36.36	2.93574
36.37	2.93245
36.38	2.91172
36.39	2.91567
36.4	2.95383
36.41	2.92685
36.42	2.8933
36.43	2.9285
36.44	2.94133
36.45	2.91567
36.46	2.92751
36.47	2.91501
36.48	2.91172
36.49	2.94396
36.5	2.93508
36.51	2.93277
36.52	2.91764
36.53	2.91402
36.54	2.91139
36.55	2.93705
36.56	2.90383
36.57	2.92587
36.58	2.94856
36.59	2.94955
36.6	2.92685
36.61	2.91172
36.62	2.95613
36.63	2.92159
36.64	2.92521
36.65	2.93672
36.66	2.9456
36.67	2.92192
36.68	2.92093
36.69	2.92784
36.7	2.93541
36.71	2.91567
36.72	2.92159
36.73	2.92652
36.74	2.93212
36.75	2.94922
36.76	2.92389
36.77	2.94988
36.78	2.94791
36.79	2.92258
36.8	2.91139
36.81	2.94429
36.82	2.96468
36.83	2.93212
36.84	2.92192
36.85	2.93606
36.86	2.90185
36.87	2.92784
36.88	2.90547
36.89	2.94988
36.9	2.95185
36.91	2.916
36.92	2.91238
36.93	2.92817
36.94	2.89889
36.95	2.93574
36.96	2.93508
36.97	2.94001
36.98	2.94166
36.99	2.91929
37	2.90218
37.01	2.91666
37.02	2.94363
37.03	2.91633
37.04	2.93475
37.05	2.9387
37.06	2.97554
37.07	2.92291
37.08	2.93277
37.09	2.90317
37.1	2.93738
37.11	2.93014
37.12	2.93277
37.13	2.9058
37.14	2.91337
37.15	2.94462
37.16	2.94758
37.17	2.94199
37.18	2.93014
37.19	2.89856
37.2	2.93245
37.21	2.93771
37.22	2.90942
37.23	2.92324
37.24	2.94758
37.25	2.92389
37.26	2.93245
37.27	2.95646
37.28	2.94133
37.29	2.94231
37.3	2.93245
37.31	2.94955
37.32	2.94988
37.33	2.93606
37.34	2.91797
37.35	2.94396
37.36	2.91435
37.37	2.9331
37.38	2.91698
37.39	2.91567
37.4	2.89593
37.41	2.88047
37.42	2.90547
37.43	2.89593
37.44	2.9081
37.45	2.93606
37.46	2.91633
37.47	2.92883
37.48	2.90712
37.49	2.93376
37.5	2.92455
37.51	2.93475
37.52	2.92652
37.53	2.91731
37.54	2.93705
37.55	2.88869
37.56	2.91731
37.57	2.8956
37.58	2.94264
37.59	2.90021
37.6	2.94988
37.61	2.9308
37.62	2.94889
37.63	2.93245
37.64	2.91205
37.65	2.91666
37.66	2.93179
37.67	2.90909
37.68	2.95021
37.69	2.95482
37.7	2.92784
37.71	2.93409
37.72	2.94264
37.73	2.94495
37.74	2.94067
37.75	2.91106
37.76	2.92916
37.77	2.91468
37.78	2.93179
37.79	2.91698
37.8	2.94363
37.81	2.9285
37.82	2.89659
37.83	2.91666
37.84	2.9285
37.85	2.9081
37.86	2.92027
37.87	2.90745
37.88	2.89396
37.89	2.89264
37.9	2.89791
37.91	2.91008
37.92	2.91304
37.93	2.93541
37.94	2.93804
37.95	2.93376
37.96	2.95251
37.97	2.92126
37.98	2.91698
37.99	2.91139
38	2.92652
38.01	2.91041
38.02	2.94593
38.03	2.9456
38.04	2.92784
38.05	2.91501
38.06	2.91238
38.07	2.94495
38.08	2.93179
38.09	2.92521
38.1	2.95745
38.11	2.93475
38.12	2.90745
38.13	2.91106
38.14	2.95317
38.15	2.89725
38.16	2.92554
38.17	2.93277
38.18	2.92652
38.19	2.94001
38.2	2.93376
38.21	2.90679
38.22	2.95745
38.23	2.93935
38.24	2.9331
38.25	2.90942
38.26	2.93277
38.27	2.91073
38.28	2.92949
38.29	2.94922
38.3	2.93968
38.31	2.9183
38.32	2.91896
38.33	2.9137
38.34	2.94495
38.35	2.9183
38.36	2.93541
38.37	2.94725
38.38	2.93277
38.39	2.91896
38.4	2.94791
38.41	2.93804
38.42	2.92949
38.43	2.91534
38.44	2.8785
38.45	2.9183
38.46	2.93541
38.47	2.91995
38.48	2.91896
38.49	2.94396
38.5	2.93179
38.51	2.90843
38.52	2.92949
38.53	2.91337
38.54	2.90975
38.55	2.9206
38.56	2.92356
38.57	2.91041
38.58	2.9456
38.59	2.91929
38.6	2.9535
38.61	2.94692
38.62	2.90745
38.63	2.91633
38.64	2.94034
38.65	2.94297
38.66	2.92488
38.67	2.91501
38.68	2.89988
38.69	2.91106
38.7	2.94725
38.71	2.93442
38.72	2.94495
38.73	2.94133
38.74	2.91304
38.75	2.94264
38.76	2.94429
38.77	2.93968
38.78	2.96929
38.79	2.94758
38.8	2.94231
38.81	2.9387
38.82	2.89725
38.83	2.91172
38.84	2.90547
38.85	2.91238
38.86	2.91929
38.87	2.92455
38.88	2.92192
38.89	2.91205
38.9	2.93738
38.91	2.90613
38.92	2.90448
38.93	2.91764
38.94	2.93804
38.95	2.8956
38.96	2.91534
38.97	2.93014
38.98	2.94889
38.99	2.91567
39	2.93343
39.01	2.92718
39.02	2.93771
39.03	2.90745
39.04	2.92192
39.05	2.94264
39.06	2.92949
39.07	2.90745
39.08	2.93179
39.09	2.91139
39.1	2.91896
39.11	2.91633
39.12	2.91797
39.13	2.89988
39.14	2.90613
39.15	2.92488
39.16	2.91929
39.17	2.94363
39.18	2.9206
39.19	2.93837
39.2	2.95745
39.21	2.93903
39.22	2.91238
39.23	2.93212
39.24	2.93606
39.25	2.91633
39.26	2.941
39.27	2.92652
39.28	2.92027
39.29	2.93508
39.3	2.92883
39.31	2.92389
39.32	2.92718
39.33	2.92784
39.34	2.96403
39.35	2.94231
39.36	2.91666
39.37	2.94856
39.38	2.94988
39.39	2.91271
39.4	2.94133
39.41	2.94758
39.42	2.92159
39.43	2.9262
39.44	2.91501
39.45	2.91567
39.46	2.93475
39.47	2.94297
39.48	2.90021
39.49	2.91238
39.5	2.91567
39.51	2.90613
39.52	2.91929
39.53	2.91764
39.54	2.93179
39.55	2.92258
39.56	2.92587
39.57	2.90284
39.58	2.90416
39.59	2.97521
39.6	2.95284
39.61	2.94593
39.62	2.94297
39.63	2.92488
39.64	2.92159
39.65	2.94955
39.66	2.9433
39.67	2.93409
39.68	2.90613
39.69	2.95383
39.7	2.9683
39.71	2.93672
39.72	2.91995
39.73	2.90251
39.74	2.90843
39.75	2.91271
39.76	2.94791
39.77	2.93968
39.78	2.91995
39.79	2.93146
39.8	2.93903
39.81	2.93903
39.82	2.9183
39.83	2.9308
39.84	2.92652
39.85	2.92225
39.86	2.88771
39.87	2.92159
39.88	2.90448
39.89	2.92192
39.9	2.93146
39.91	2.9206
39.92	2.95153
39.93	2.95547
39.94	2.92159
39.95	2.9206
39.96	2.92883
39.97	2.90448
39.98	2.9058
39.99	2.88573
40	2.91501
40.01	2.92225
40.02	2.94659
40.03	2.90975
40.04	2.92652
40.05	2.9331
40.06	2.94955
40.07	2.91797
40.08	2.92587
40.09	2.92258
40.1	2.92455
40.11	2.89692
40.12	2.90021
40.13	2.92389
40.14	2.91238
40.15	2.89133
40.16	2.89955
40.17	2.90745
40.18	2.93804
40.19	2.90909
40.2	2.92324
40.21	2.91041
40.22	2.92554
40.23	2.90481
40.24	2.90712
40.25	2.92685
40.26	2.92422
40.27	2.9285
40.28	2.93804
40.29	2.92949
40.3	2.92718
40.31	2.88738
40.32	2.90876
40.33	2.90021
40.34	2.89758
40.35	2.92718
40.36	2.95153
40.37	2.9058
40.38	2.93376
40.39	2.89363
40.4	2.91764
40.41	2.93837
40.42	2.90909
40.43	2.89231
40.44	2.95218
40.45	2.92455
40.46	2.92159
40.47	2.91666
40.48	2.91435
40.49	2.92324
40.5	2.93968
40.51	2.91929
40.52	2.89034
40.53	2.9308
40.54	2.94133
40.55	2.91337
40.56	2.90843
40.57	2.91698
40.58	2.90152
40.59	2.93508
40.6	2.90843
40.61	2.91271
40.62	2.94001
40.63	2.9262
40.64	2.91435
40.65	2.91995
40.66	2.90975
40.67	2.94528
40.68	2.9558
40.69	2.90942
40.7	2.9308
40.71	2.93047
40.72	2.93541
40.73	2.92455
40.74	2.94067
40.75	2.9137
40.76	2.8956
40.77	2.92784
40.78	2.90876
40.79	2.93541
40.8	2.92126
40.81	2.93343
40.82	2.91666
40.83	2.93771
40.84	2.94758
40.85	2.92291
40.86	2.92488
40.87	2.93672
40.88	2.91567
40.89	2.92685
40.9	2.92324
40.91	2.93179
40.92	2.9456
40.93	2.91435
40.94	2.94001
40.95	2.92784
40.96	2.91337
40.97	2.91633
40.98	2.93968
40.99	2.93804
41	2.9262
41.01	2.88705
41.02	2.89198
41.03	2.92587
41.04	2.9433
41.05	2.91995
41.06	2.9308
41.07	2.92521
41.08	2.93475
41.09	2.91304
41.1	2.92488
41.11	2.94363
41.12	2.92751
41.13	2.90251
41.14	2.92488
41.15	2.89823
41.16	2.93014
41.17	2.92027
41.18	2.94528
41.19	2.92389
41.2	2.90777
41.21	2.94824
41.22	2.93738
41.23	2.93245
41.24	2.92291
41.25	2.91435
41.26	2.9081
41.27	2.9035
41.28	2.93705
41.29	2.95778
41.3	2.89297
41.31	2.90909
41.32	2.92521
41.33	2.90152
41.34	2.87981
41.35	2.91337
41.36	2.91205
41.37	2.93409
41.38	2.941
41.39	2.91435
41.4	2.90745
41.41	2.92685
41.42	2.94133
41.43	2.92949
41.44	2.9387
41.45	2.92093
41.46	2.92981
41.47	2.91962
41.48	2.91073
41.49	2.90712
41.5	2.91205
41.51	2.88968
41.52	2.93409
41.53	2.91731
41.54	2.92324
41.55	2.92554
41.56	2.93343
41.57	2.97422
41.58	2.94363
41.59	2.91896
41.6	2.93047
41.61	2.90119
41.62	2.91534
41.63	2.93508
41.64	2.92587
41.65	2.94725
41.66	2.93409
41.67	2.93968
41.68	2.9058
41.69	2.90613
41.7	2.92389
41.71	2.92258
41.72	2.91633
41.73	2.91468
41.74	2.89363
41.75	2.92422
41.76	2.92916
41.77	2.91863
41.78	2.93442
41.79	2.94659
41.8	2.9433
41.81	2.94889
41.82	2.9285
41.83	2.95021
41.84	2.92685
41.85	2.93212
41.86	2.93771
41.87	2.94659
41.88	2.9433
41.89	2.97061
41.9	2.96403
41.91	2.9308
41.92	2.91238
41.93	2.92521
41.94	2.9137
41.95	2.93475
41.96	2.95679
41.97	2.9558
41.98	2.94396
41.99	2.92718
42	2.90975
42.01	2.91337
42.02	2.92981
42.03	2.9331
42.04	2.90317
42.05	2.88771
42.06	2.91073
42.07	2.91797
42.08	2.92883
42.09	2.9387
42.1	2.94593
42.11	2.93475
42.12	2.92751
42.13	2.92027
42.14	2.95284
42.15	2.93245
42.16	2.90909
42.17	2.93146
42.18	2.95021
42.19	2.93475
42.2	2.91139
42.21	2.94034
42.22	2.94593
42.23	2.94231
42.24	2.91402
42.25	2.92422
42.26	2.9081
42.27	2.93738
42.28	2.9683
42.29	2.93639
42.3	2.90087
42.31	2.92685
42.32	2.90021
42.33	2.93212
42.34	2.89626
42.35	2.92817
42.36	2.89429
42.37	2.89133
42.38	2.92685
42.39	2.94001
42.4	2.9456
42.41	2.9262
42.42	2.90942
42.43	2.92422
42.44	2.93738
42.45	2.91106
42.46	2.94297
42.47	2.92652
42.48	2.91139
42.49	2.90218
42.5	2.93606
42.51	2.92488
42.52	2.92981
42.53	2.92652
42.54	2.92521
42.55	2.89758
42.56	2.9387
42.57	2.94955
42.58	2.90942
42.59	2.91698
42.6	2.92422
42.61	2.91501
42.62	2.92356
42.63	2.92488
42.64	2.92587
42.65	2.93771
42.66	2.9285
42.67	2.9331
42.68	2.95185
42.69	2.92192
42.7	2.93014
42.71	2.94889
42.72	2.93475
42.73	2.93113
42.74	2.9035
42.75	2.92652
42.76	2.9206
42.77	2.90547
42.78	2.92488
42.79	2.9183
42.8	2.92718
42.81	2.93146
42.82	2.92554
42.83	2.93245
42.84	2.94791
42.85	2.92751
42.86	2.90613
42.87	2.94363
42.88	2.95942
42.89	2.92981
42.9	2.90284
42.91	2.92521
42.92	2.95185
42.93	2.93047
42.94	2.95975
42.95	2.93277
42.96	2.93014
42.97	2.92718
42.98	2.94363
42.99	2.89001
43	2.9262
43.01	2.91731
43.02	2.90843
43.03	2.90087
43.04	2.89823
43.05	2.93014
43.06	2.9456
43.07	2.92883
43.08	2.91633
43.09	2.92291
43.1	2.93804
43.11	2.93277
43.12	2.93606
43.13	2.93409
43.14	2.90876
43.15	2.93837
43.16	2.90613
43.17	2.95514
43.18	2.92521
43.19	2.92389
43.2	2.90613
43.21	2.91896
43.22	2.90317
43.23	2.92554
43.24	2.93475
43.25	2.91731
43.26	2.92718
43.27	2.92093
43.28	2.93343
43.29	2.91205
43.3	2.95087
43.31	2.92027
43.32	2.92916
43.33	2.92126
43.34	2.93804
43.35	2.91106
43.36	2.91304
43.37	2.90975
43.38	2.93146
43.39	2.89626
43.4	2.90481
43.41	2.90745
43.42	2.89659
43.43	2.95087
43.44	2.92817
43.45	2.92916
43.46	2.93541
43.47	2.92718
43.48	2.92554
43.49	2.92389
43.5	2.88606
43.51	2.92389
43.52	2.95021
43.53	2.95745
43.54	2.92916
43.55	2.9206
43.56	2.92126
43.57	2.94626
43.58	2.9183
43.59	2.93574
43.6	2.91698
43.61	2.90416
43.62	2.9206
43.63	2.91271
43.64	2.92587
43.65	2.90448
43.66	2.91337
43.67	2.92258
43.68	2.91797
43.69	2.92324
43.7	2.9183
43.71	2.91995
43.72	2.89198
43.73	2.89593
43.74	2.94528
43.75	2.92455
43.76	2.94758
43.77	2.92126
43.78	2.92554
43.79	2.89363
43.8	2.93442
43.81	2.92883
43.82	2.97455
43.83	2.92554
43.84	2.91205
43.85	2.93277
43.86	2.92455
43.87	2.92784
43.88	2.93343
43.89	2.90284
43.9	2.92093
43.91	2.93343
43.92	2.90613
43.93	2.93475
43.94	2.9285
43.95	2.94988
43.96	2.92718
43.97	2.93574
43.98	2.90745
43.99	2.90646
44	2.90975
44.01	2.94791
44.02	2.941
44.03	2.9035
44.04	2.90876
44.05	2.92521
44.06	2.91271
44.07	2.93672
44.08	2.9308
44.09	2.89692
44.1	2.90876
44.11	2.891
44.12	2.90975
44.13	2.94363
44.14	2.92521
44.15	2.9285
44.16	2.95613
44.17	2.93343
44.18	2.96567
44.19	2.93047
44.2	2.9285
44.21	2.92126
44.22	2.90383
44.23	2.92784
44.24	2.91501
44.25	2.93146
44.26	2.92093
44.27	2.9183
44.28	2.94166
44.29	2.94034
44.3	2.91041
44.31	2.91501
44.32	2.94791
44.33	2.93705
44.34	2.89462
44.35	2.91041
44.36	2.89527
44.37	2.93212
44.38	2.93245
44.39	2.9035
44.4	2.96304
44.41	2.96107
44.42	2.94133
44.43	2.89791
44.44	2.92192
44.45	2.94297
44.46	2.94363
44.47	2.94166
44.48	2.91106
44.49	2.90284
44.5	2.89067
44.51	2.91402
44.52	2.90514
44.53	2.93212
44.54	2.91666
44.55	2.92389
44.56	2.91205
44.57	2.92159
44.58	2.91962
44.59	2.94231
44.6	2.90777
44.61	2.92587
44.62	2.9058
44.63	2.90514
44.64	2.93606
44.65	2.92784
44.66	2.94001
44.67	2.94889
44.68	2.93705
44.69	2.916
44.7	2.91073
44.71	2.91896
44.72	2.93541
44.73	2.95317
44.74	2.92126
44.75	2.89297
44.76	2.92422
44.77	2.92291
44.78	2.91731
44.79	2.89462
44.8	2.92027
44.81	2.89429
44.82	2.92652
44.83	2.96008
44.84	2.91929
44.85	2.9035
44.86	2.95778
44.87	2.94758
44.88	2.90777
44.89	2.92159
44.9	2.92916
44.91	2.90284
44.92	2.92916
44.93	2.93705
44.94	2.91402
44.95	2.90909
44.96	2.92554
44.97	2.91106
44.98	2.93837
44.99	2.92324
45	2.92718
45.01	2.90416
45.02	2.92718
45.03	2.91731
45.04	2.92455
45.05	2.93014
45.06	2.91172
45.07	2.92685
45.08	2.9262
45.09	2.91271
45.1	2.9206
45.11	2.90284
45.12	2.88738
45.13	2.88804
45.14	2.92652
45.15	2.92784
45.16	2.94199
45.17	2.91731
45.18	2.91337
45.19	2.91995
45.2	2.92751
45.21	2.91008
45.22	2.90909
45.23	2.93705
45.24	2.90284
45.25	2.92554
45.26	2.91567
45.27	2.91501
45.28	2.89955
45.29	2.88573
45.3	2.92356
45.31	2.93376
45.32	2.93837
45.33	2.93837
45.34	2.90317
45.35	2.90613
45.36	2.91041
45.37	2.93442
45.38	2.95646
45.39	2.91962
45.4	2.92949
45.41	2.94462
45.42	2.92389
45.43	2.91863
45.44	2.89264
45.45	2.91304
45.46	2.95251
45.47	2.9262
45.48	2.95416
45.49	2.91962
45.5	2.91337
45.51	2.91534
45.52	2.90712
45.53	2.95087
45.54	2.9433
45.55	2.92685
45.56	2.89758
45.57	2.89856
45.58	2.89823
45.59	2.94363
45.6	2.93804
45.61	2.95482
45.62	2.96172
45.63	2.9387
45.64	2.91731
45.65	2.90975
45.66	2.89692
45.67	2.92192
45.68	2.93014
45.69	2.92981
45.7	2.93014
45.71	2.91073
45.72	2.92225
45.73	2.91501
45.74	2.91008
45.75	2.90054
45.76	2.9137
45.77	2.92258
45.78	2.90054
45.79	2.9387
45.8	2.93475
45.81	2.93113
45.82	2.93212
45.83	2.9137
45.84	2.9206
45.85	2.91534
45.86	2.93179
45.87	2.91501
45.88	2.87883
45.89	2.91698
45.9	2.93705
45.91	2.94495
45.92	2.91271
45.93	2.92488
45.94	2.92587
45.95	2.89462
45.96	2.91435
45.97	2.94001
45.98	2.94001
45.99	2.91797
46	2.91172
46.01	2.91402
46.02	2.90712
46.03	2.93508
46.04	2.94824
46.05	2.91304
46.06	2.91041
46.07	2.90152
46.08	2.89889
46.09	2.89856
46.1	2.93639
46.11	2.9387
46.12	2.9183
46.13	2.91731
46.14	2.92587
46.15	2.91666
46.16	2.92455
46.17	2.93014
46.18	2.89396
46.19	2.91337
46.2	2.92159
46.21	2.88935
46.22	2.91797
46.23	2.90679
46.24	2.92981
46.25	2.90547
46.26	2.90185
46.27	2.91402
46.28	2.92751
46.29	2.92027
46.3	2.89494
46.31	2.9206
46.32	2.92422
46.33	2.90448
46.34	2.92587
46.35	2.92356
46.36	2.95679
46.37	2.93606
46.38	2.90087
46.39	2.90185
46.4	2.91501
46.41	2.91172
46.42	2.91666
46.43	2.91073
46.44	2.93475
46.45	2.90284
46.46	2.88277
46.47	2.93376
46.48	2.93179
46.49	2.91731
46.5	2.91567
46.51	2.916
46.52	2.95416
46.53	2.94462
46.54	2.92784
46.55	2.93212
46.56	2.93409
46.57	2.91073
46.58	2.92916
46.59	2.9387
46.6	2.93277
46.61	2.88376
46.62	2.92192
46.63	2.94692
46.64	2.92554
46.65	2.94166
46.66	2.92324
46.67	2.93508
46.68	2.91731
46.69	2.88047
46.7	2.92488
46.71	2.92422
46.72	2.95054
46.73	2.93014
46.74	2.95284
46.75	2.91962
46.76	2.92916
46.77	2.92981
46.78	2.89988
46.79	2.89791
46.8	2.9035
46.81	2.89955
46.82	2.90613
46.83	2.93804
46.84	2.95909
46.85	2.89626
46.86	2.93245
46.87	2.92159
46.88	2.90712
46.89	2.9262
46.9	2.93442
46.91	2.95514
46.92	2.941
46.93	2.90909
46.94	2.90876
46.95	2.90679
46.96	2.90712
46.97	2.93146
46.98	2.90843
46.99	2.90054
47	2.93804
47.01	2.91567
47.02	2.9331
47.03	2.94988
47.04	2.91534
47.05	2.94297
47.06	2.93212
47.07	2.95679
47.08	2.92751
47.09	2.90218
47.1	2.93047
47.11	2.91896
47.12	2.93508
47.13	2.91863
47.14	2.92521
47.15	2.89692
47.16	2.94495
47.17	2.94067
47.18	2.9331
47.19	2.95054
47.2	2.93705
47.21	2.90646
47.22	2.92455
47.23	2.91896
47.24	2.91863
47.25	2.91337
47.26	2.93968
47.27	2.90745
47.28	2.91106
47.29	2.93672
47.3	2.92027
47.31	2.92389
47.32	2.91501
47.33	2.93903
47.34	2.94856
47.35	2.93672
47.36	2.92751
47.37	2.93277
47.38	2.91501
47.39	2.88376
47.4	2.89758
47.41	2.89297
47.42	2.89955
47.43	2.87521
47.44	2.90712
47.45	2.90514
47.46	2.8933
47.47	2.90251
47.48	2.93541
47.49	2.9308
47.5	2.92225
47.51	2.90119
47.52	2.91402
47.53	2.93804
47.54	2.94363
47.55	2.94758
47.56	2.90679
47.57	2.92225
47.58	2.9058
47.59	2.90416
47.6	2.91238
47.61	2.91666
47.62	2.94725
47.63	2.89823
47.64	2.91238
47.65	2.95284
47.66	2.916
47.67	2.91238
47.68	2.91073
47.69	2.91633
47.7	2.94692
47.71	2.90317
47.72	2.94396
47.73	2.96534
47.74	2.94824
47.75	2.89758
47.76	2.90218
47.77	2.9206
47.78	2.95218
47.79	2.94396
47.8	2.91468
47.81	2.91731
47.82	2.92488
47.83	2.90218
47.84	2.92027
47.85	2.91304
47.86	2.92356
47.87	2.93113
47.88	2.92324
47.89	2.92949
47.9	2.94725
47.91	2.94659
47.92	2.93508
47.93	2.95876
47.94	2.94659
47.95	2.88968
47.96	2.91106
47.97	2.90613
47.98	2.92159
47.99	2.93606
48	2.89659
48.01	2.92587
48.02	2.93376
48.03	2.92685
48.04	2.91172
48.05	2.89166
48.06	2.89823
48.07	2.90909
48.08	2.95021
48.09	2.94429
48.1	2.94133
48.11	2.91172
48.12	2.9081
48.13	2.89429
48.14	2.91106
48.15	2.93409
48.16	2.92554
48.17	2.90119
48.18	2.91929
48.19	2.92981
48.2	2.90613
48.21	2.92027
48.22	2.91172
48.23	2.92422
48.24	2.94001
48.25	2.94231
48.26	2.93903
48.27	2.91797
48.28	2.92422
48.29	2.93212
48.3	2.93606
48.31	2.95021
48.32	2.93146
48.33	2.9285
48.34	2.94067
48.35	2.89527
48.36	2.90876
48.37	2.88935
48.38	2.88606
48.39	2.91797
48.4	2.93639
48.41	2.95021
48.42	2.93245
48.43	2.93113
48.44	2.93672
48.45	2.92455
48.46	2.90712
48.47	2.93014
48.48	2.91271
48.49	2.94034
48.5	2.92488
48.51	2.89791
48.52	2.93014
48.53	2.94791
48.54	2.941
48.55	2.92521
48.56	2.91172
48.57	2.94659
48.58	2.94593
48.59	2.92126
48.6	2.91962
48.61	2.89527
48.62	2.91567
48.63	2.91205
48.64	2.92521
48.65	2.89889
48.66	2.92389
48.67	2.93508
48.68	2.92093
48.69	2.89527
48.7	2.91106
48.71	2.93968
48.72	2.90909
48.73	2.92751
48.74	2.90679
48.75	2.91073
48.76	2.90909
48.77	2.90251
48.78	2.92488
48.79	2.92192
48.8	2.94626
48.81	2.93837
48.82	2.89527
48.83	2.87619
48.84	2.9285
48.85	2.9285
48.86	2.9387
48.87	2.90284
48.88	2.92291
48.89	2.92192
48.9	2.90054
48.91	2.96041
48.92	2.93574
48.93	2.91073
48.94	2.92751
48.95	2.91797
48.96	2.92981
48.97	2.95054
48.98	2.89791
48.99	2.9058
49	2.91008
49.01	2.92751
49.02	2.89231
49.03	2.90679
49.04	2.90514
49.05	2.87981
49.06	2.93277
49.07	2.94363
49.08	2.9262
49.09	2.9387
49.1	2.92981
49.11	2.92521
49.12	2.9285
49.13	2.89396
49.14	2.91106
49.15	2.90975
49.16	2.94856
49.17	2.93376
49.18	2.94955
49.19	2.93113
49.2	2.8956
49.21	2.92389
49.22	2.95712
49.23	2.91304
49.24	2.89725
49.25	2.88968
49.26	2.93146
49.27	2.93738
49.28	2.92389
49.29	2.94889
49.3	2.92258
49.31	2.93968
49.32	2.91139
49.33	2.90712
49.34	2.9331
49.35	2.92784
49.36	2.91172
49.37	2.94363
49.38	2.91666
49.39	2.93574
49.4	2.88475
49.41	2.91271
49.42	2.95449
49.43	2.95416
49.44	2.91205
49.45	2.88837
49.46	2.9183
49.47	2.9058
49.48	2.91172
49.49	2.90547
49.5	2.93705
49.51	2.9331
49.52	2.90777
49.53	2.91797
49.54	2.91402
49.55	2.92126
49.56	2.91731
49.57	2.9035
49.58	2.92389
49.59	2.92521
49.6	2.93771
49.61	2.92587
49.62	2.90448
49.63	2.95482
49.64	2.891
49.65	2.92587
49.66	2.92817
49.67	2.93245
49.68	2.93245
49.69	2.91402
49.7	2.8854
49.71	2.89725
49.72	2.89593
49.73	2.90251
49.74	2.92521
49.75	2.93606
49.76	2.96435
49.77	2.9285
49.78	2.90646
49.79	2.90514
49.8	2.91402
49.81	2.96107
49.82	2.94593
49.83	2.94297
49.84	2.90712
49.85	2.90284
49.86	2.87455
49.87	2.93639
49.88	2.93277
49.89	2.93475
49.9	2.93146
49.91	2.89791
49.92	2.90547
49.93	2.93014
49.94	2.92192
49.95	2.92521
49.96	2.89856
49.97	2.88343
49.98	2.9262
49.99	2.89856
50	2.93343
