"BIO-KINE ASCII FILE"
"_COMMENT"	"MOS-500 Spectrometer"
"_COMMENT"	"Kinetics measurement"
"_COMMENT"	"Y Unit : Volt,  X Unit : s"
"_COMMENT"	"Excitation wavelength : 380 nm"
"_COMMENT"	"Fentes bandwidth =  1 nm"
"_COMMENT"	"HV= 1000V"
"_COMMENT"	"Timebase  1 =  .01 s   5001 pts"
"_SFM"	"SFM-400 /S  Advanced mode"
"_SFM"	"Ratio : S1: 2.5, S2: 0, S3: 0, S4: 1"
"_SFM"	"Content : S1: , S2: , S3: , S4:"
"_SFM"	"Concentration : S1: , S2: , S3: , S4:"
"_SFM"	"Total volume : 209 µl  Flow : 3.5 mL/s"
"_SFM"	"Acquisition start :  10 ms before stop"
"_SFM"	"cuve=FC-15, s1=10 ml , s2=10 ml , s3=10 ml , s4=1.9 ml"
"_UNITX"	"s"
"_UNITY"	"Volt"
"_DELTAX"	0
"_DATA"
1e-300	2.21532
0.01	2.25019
0.02	2.34854
0.03	2.37322
0.04	2.40052
0.05	2.40874
0.06	2.42914
0.07	2.45118
0.08	2.46039
0.09	2.43309
0.1	2.44164
0.11	2.4594
0.12	2.49164
0.13	2.47914
0.14	2.47322
0.15	2.47486
0.16	2.48144
0.17	2.47125
0.18	2.46533
0.19	2.45875
0.2	2.48802
0.21	2.49559
0.22	2.49987
0.23	2.48802
0.24	2.49
0.25	2.49427
0.26	2.4673
0.27	2.48112
0.28	2.49164
0.29	2.46829
0.3	2.5071
0.31	2.50052
0.32	2.46335
0.33	2.52585
0.34	2.50447
0.35	2.52289
0.36	2.49065
0.37	2.51829
0.38	2.51467
0.39	2.50513
0.4	2.48506
0.41	2.4844
0.42	2.52421
0.43	2.49855
0.44	2.46927
0.45	2.51927
0.46	2.49954
0.47	2.49329
0.48	2.51006
0.49	2.50579
0.5	2.5298
0.51	2.5173
0.52	2.52552
0.53	2.49658
0.54	2.47322
0.55	2.48835
0.56	2.51335
0.57	2.53704
0.58	2.49888
0.59	2.50019
0.6	2.51039
0.61	2.50908
0.62	2.49559
0.63	2.50019
0.64	2.52355
0.65	2.48704
0.66	2.48572
0.67	2.51105
0.68	2.49329
0.69	2.47585
0.7	2.49362
0.71	2.4923
0.72	2.48901
0.73	2.50019
0.74	2.48967
0.75	2.49296
0.76	2.47552
0.77	2.50085
0.78	2.49559
0.79	2.48704
0.8	2.49987
0.81	2.51237
0.82	2.51434
0.83	2.49197
0.84	2.5048
0.85	2.50644
0.86	2.48144
0.87	2.48605
0.88	2.49855
0.89	2.49723
0.9	2.52454
0.91	2.50546
0.92	2.49691
0.93	2.49789
0.94	2.50546
0.95	2.49493
0.96	2.49329
0.97	2.48342
0.98	2.48704
0.99	2.49362
1	2.49098
1.01	2.5048
1.02	2.51434
1.03	2.50217
1.04	2.50546
1.05	2.47256
1.06	2.51302
1.07	2.51862
1.08	2.53474
1.09	2.50973
1.1	2.48605
1.11	2.50184
1.12	2.4821
1.13	2.4775
1.14	2.49493
1.15	2.5127
1.16	2.50052
1.17	2.50283
1.18	2.50973
1.19	2.51138
1.2	2.48473
1.21	2.50348
1.22	2.48704
1.23	2.48934
1.24	2.49065
1.25	2.49691
1.26	2.51171
1.27	2.4923
1.28	2.49658
1.29	2.51138
1.3	2.51664
1.31	2.49789
1.32	2.48046
1.33	2.4844
1.34	2.48506
1.35	2.48835
1.36	2.47717
1.37	2.48243
1.38	2.51862
1.39	2.50941
1.4	2.48704
1.41	2.47519
1.42	2.4923
1.43	2.4946
1.44	2.51006
1.45	2.48769
1.46	2.51434
1.47	2.48605
1.48	2.51335
1.49	2.4946
1.5	2.51138
1.51	2.51105
1.52	2.49822
1.53	2.48572
1.54	2.49888
1.55	2.50513
1.56	2.51796
1.57	2.51895
1.58	2.5173
1.59	2.50085
1.6	2.50414
1.61	2.52355
1.62	2.49526
1.63	2.50052
1.64	2.47848
1.65	2.47881
1.66	2.46401
1.67	2.47618
1.68	2.52092
1.69	2.48144
1.7	2.46105
1.71	2.48901
1.72	2.50513
1.73	2.48704
1.74	2.4775
1.75	2.48539
1.76	2.47717
1.77	2.49592
1.78	2.50579
1.79	2.48473
1.8	2.48769
1.81	2.50217
1.82	2.49888
1.83	2.52092
1.84	2.5025
1.85	2.50151
1.86	2.50743
1.87	2.51335
1.88	2.49098
1.89	2.48309
1.9	2.46138
1.91	2.48967
1.92	2.50842
1.93	2.48473
1.94	2.49
1.95	2.47388
1.96	2.46993
1.97	2.48408
1.98	2.48506
1.99	2.51993
2	2.52849
2.01	2.51927
2.02	2.49033
2.03	2.54066
2.04	2.50414
2.05	2.50414
2.06	2.48737
2.07	2.49559
2.08	2.48572
2.09	2.49493
2.1	2.49329
2.11	2.49756
2.12	2.48868
2.13	2.52684
2.14	2.51302
2.15	2.48506
2.16	2.49691
2.17	2.48638
2.18	2.52322
2.19	2.5048
2.2	2.49197
2.21	2.4923
2.22	2.5048
2.23	2.51006
2.24	2.51368
2.25	2.48802
2.26	2.48408
2.27	2.50348
2.28	2.48177
2.29	2.49493
2.3	2.47585
2.31	2.51631
2.32	2.49954
2.33	2.49921
2.34	2.47783
2.35	2.49987
2.36	2.51697
2.37	2.47256
2.38	2.52191
2.39	2.48901
2.4	2.48737
2.41	2.50019
2.42	2.46927
2.43	2.48835
2.44	2.50217
2.45	2.48868
2.46	2.48769
2.47	2.51566
2.48	2.48737
2.49	2.47585
2.5	2.49559
2.51	2.48967
2.52	2.49362
2.53	2.47421
2.54	2.5048
2.55	2.4844
2.56	2.47355
2.57	2.49559
2.58	2.49362
2.59	2.47783
2.6	2.49888
2.61	2.46631
2.62	2.47881
2.63	2.50118
2.64	2.50217
2.65	2.47388
2.66	2.49131
2.67	2.48638
2.68	2.48375
2.69	2.48704
2.7	2.49
2.71	2.50085
2.72	2.46861
2.73	2.465
2.74	2.51697
2.75	2.49756
2.76	2.50776
2.77	2.48375
2.78	2.52059
2.79	2.49164
2.8	2.5196
2.81	2.51105
2.82	2.48638
2.83	2.47388
2.84	2.49559
2.85	2.5025
2.86	2.51171
2.87	2.50677
2.88	2.5173
2.89	2.51796
2.9	2.51895
2.91	2.4844
2.92	2.46335
2.93	2.46204
2.94	2.47519
2.95	2.50381
2.96	2.47223
2.97	2.47881
2.98	2.48967
2.99	2.515
3	2.51335
3.01	2.50941
3.02	2.52816
3.03	2.50217
3.04	2.49
3.05	2.47848
3.06	2.52092
3.07	2.49394
3.08	2.51039
3.09	2.49855
3.1	2.47355
3.11	2.49493
3.12	2.52816
3.13	2.48177
3.14	2.45217
3.15	2.50612
3.16	2.49131
3.17	2.47486
3.18	2.48276
3.19	2.47256
3.2	2.49065
3.21	2.5127
3.22	2.48276
3.23	2.47454
3.24	2.47815
3.25	2.49756
3.26	2.50842
3.27	2.51664
3.28	2.50875
3.29	2.50546
3.3	2.49691
3.31	2.45842
3.32	2.48605
3.33	2.4946
3.34	2.49098
3.35	2.4946
3.36	2.48934
3.37	2.49296
3.38	2.51171
3.39	2.4923
3.4	2.47519
3.41	2.47717
3.42	2.49658
3.43	2.50908
3.44	2.46697
3.45	2.47421
3.46	2.4844
3.47	2.50381
3.48	2.51927
3.49	2.53375
3.5	2.48177
3.51	2.47158
3.52	2.49065
3.53	2.47454
3.54	2.49756
3.55	2.48506
3.56	2.45447
3.57	2.46993
3.58	2.49296
3.59	2.49625
3.6	2.46927
3.61	2.465
3.62	2.46796
3.63	2.46434
3.64	2.47848
3.65	2.47815
3.66	2.46105
3.67	2.46697
3.68	2.46171
3.69	2.46861
3.7	2.49493
3.71	2.49329
3.72	2.47815
3.73	2.48342
3.74	2.49098
3.75	2.52421
3.76	2.49427
3.77	2.48408
3.78	2.47158
3.79	2.47881
3.8	2.48177
3.81	2.50908
3.82	2.51072
3.83	2.48605
3.84	2.46631
3.85	2.50085
3.86	2.50316
3.87	2.45085
3.88	2.4571
3.89	2.46763
3.9	2.46796
3.91	2.49427
3.92	2.515
3.93	2.49559
3.94	2.50019
3.95	2.51862
3.96	2.5275
3.97	2.48671
3.98	2.48144
3.99	2.49098
4	2.48934
4.01	2.47651
4.02	2.48638
4.03	2.48539
4.04	2.48769
4.05	2.50447
4.06	2.49756
4.07	2.49756
4.08	2.47421
4.09	2.47881
4.1	2.48506
4.11	2.47947
4.12	2.4594
4.13	2.4821
4.14	2.44888
4.15	2.50381
4.16	2.48671
4.17	2.46236
4.18	2.49362
4.19	2.46894
4.2	2.47388
4.21	2.50941
4.22	2.49362
4.23	2.48144
4.24	2.47552
4.25	2.49263
4.26	2.51335
4.27	2.48605
4.28	2.51302
4.29	2.515
4.3	2.49131
4.31	2.50151
4.32	2.47355
4.33	2.48967
4.34	2.4946
4.35	2.48671
4.36	2.5025
4.37	2.48769
4.38	2.50842
4.39	2.48539
4.4	2.49888
4.41	2.49921
4.42	2.47947
4.43	2.49789
4.44	2.47783
4.45	2.49263
4.46	2.50151
4.47	2.49
4.48	2.45973
4.49	2.4821
4.5	2.48638
4.51	2.5298
4.52	2.50217
4.53	2.49065
4.54	2.48144
4.55	2.47848
4.56	2.47815
4.57	2.4946
4.58	2.49427
4.59	2.49592
4.6	2.46664
4.61	2.50677
4.62	2.50612
4.63	2.50677
4.64	2.49098
4.65	2.48737
4.66	2.47322
4.67	2.48934
4.68	2.4798
4.69	2.49427
4.7	2.49427
4.71	2.48802
4.72	2.47059
4.73	2.48868
4.74	2.4923
4.75	2.48013
4.76	2.47519
4.77	2.49362
4.78	2.46829
4.79	2.47125
4.8	2.49197
4.81	2.4946
4.82	2.48309
4.83	2.45348
4.84	2.48079
4.85	2.52552
4.86	2.53605
4.87	2.48046
4.88	2.49427
4.89	2.48539
4.9	2.47223
4.91	2.48967
4.92	2.49164
4.93	2.47585
4.94	2.48572
4.95	2.50085
4.96	2.4594
4.97	2.44986
4.98	2.45644
4.99	2.4548
5	2.47322
5.01	2.49263
5.02	2.48375
5.03	2.47421
5.04	2.49394
5.05	2.49592
5.06	2.49164
5.07	2.48506
5.08	2.49394
5.09	2.4798
5.1	2.49033
5.11	2.47552
5.12	2.48967
5.13	2.50151
5.14	2.47421
5.15	2.47223
5.16	2.47947
5.17	2.52092
5.18	2.50447
5.19	2.50842
5.2	2.51072
5.21	2.47059
5.22	2.49526
5.23	2.52322
5.24	2.49888
5.25	2.50842
5.26	2.49526
5.27	2.48868
5.28	2.46631
5.29	2.48408
5.3	2.49888
5.31	2.48638
5.32	2.47717
5.33	2.49756
5.34	2.4844
5.35	2.49065
5.36	2.50184
5.37	2.50217
5.38	2.48572
5.39	2.47421
5.4	2.45085
5.41	2.47848
5.42	2.50776
5.43	2.49362
5.44	2.47059
5.45	2.50809
5.46	2.48046
5.47	2.47914
5.48	2.47618
5.49	2.4571
5.5	2.47783
5.51	2.49065
5.52	2.46697
5.53	2.47914
5.54	2.47684
5.55	2.45513
5.56	2.49394
5.57	2.52026
5.58	2.50809
5.59	2.47717
5.6	2.47158
5.61	2.46269
5.62	2.4775
5.63	2.48737
5.64	2.46533
5.65	2.46269
5.66	2.48408
5.67	2.48539
5.68	2.51072
5.69	2.51171
5.7	2.47585
5.71	2.48276
5.72	2.4923
5.73	2.48967
5.74	2.48342
5.75	2.5071
5.76	2.48901
5.77	2.46993
5.78	2.49789
5.79	2.44625
5.8	2.46829
5.81	2.5048
5.82	2.47158
5.83	2.4775
5.84	2.49526
5.85	2.48144
5.86	2.45842
5.87	2.48638
5.88	2.47815
5.89	2.49756
5.9	2.5071
5.91	2.49362
5.92	2.48605
5.93	2.49493
5.94	2.47947
5.95	2.4594
5.96	2.48473
5.97	2.46171
5.98	2.45809
5.99	2.45973
6	2.47881
6.01	2.49658
6.02	2.50118
6.03	2.48408
6.04	2.48112
6.05	2.49263
6.06	2.48112
6.07	2.49033
6.08	2.49197
6.09	2.47256
6.1	2.50875
6.11	2.47486
6.12	2.4673
6.13	2.4798
6.14	2.4923
6.15	2.4923
6.16	2.50908
6.17	2.44493
6.18	2.46796
6.19	2.45743
6.2	2.48605
6.21	2.4775
6.22	2.49493
6.23	2.4946
6.24	2.49987
6.25	2.45381
6.26	2.48473
6.27	2.48177
6.28	2.48144
6.29	2.48769
6.3	2.48506
6.31	2.48572
6.32	2.48605
6.33	2.4775
6.34	2.47092
6.35	2.47026
6.36	2.47651
6.37	2.48605
6.38	2.50217
6.39	2.49164
6.4	2.4571
6.41	2.46335
6.42	2.48177
6.43	2.4571
6.44	2.46467
6.45	2.51368
6.46	2.48506
6.47	2.49625
6.48	2.45579
6.49	2.49855
6.5	2.47289
6.51	2.46565
6.52	2.47947
6.53	2.49789
6.54	2.51862
6.55	2.49559
6.56	2.48802
6.57	2.48309
6.58	2.50217
6.59	2.45907
6.6	2.48243
6.61	2.48309
6.62	2.48802
6.63	2.51533
6.64	2.48737
6.65	2.48276
6.66	2.4696
6.67	2.48473
6.68	2.50644
6.69	2.51138
6.7	2.47223
6.71	2.4946
6.72	2.47618
6.73	2.47158
6.74	2.48408
6.75	2.50118
6.76	2.47618
6.77	2.46302
6.78	2.46993
6.79	2.48342
6.8	2.48276
6.81	2.46993
6.82	2.49691
6.83	2.47717
6.84	2.49658
6.85	2.4571
6.86	2.47519
6.87	2.47519
6.88	2.50348
6.89	2.49559
6.9	2.47519
6.91	2.46269
6.92	2.48737
6.93	2.47059
6.94	2.51105
6.95	2.49954
6.96	2.49033
6.97	2.49394
6.98	2.49362
6.99	2.49493
7	2.48572
7.01	2.49592
7.02	2.46467
7.03	2.47289
7.04	2.45907
7.05	2.47289
7.06	2.47486
7.07	2.48967
7.08	2.46105
7.09	2.47158
7.1	2.47125
7.11	2.49065
7.12	2.46598
7.13	2.49691
7.14	2.48506
7.15	2.49526
7.16	2.46269
7.17	2.47289
7.18	2.47454
7.19	2.48013
7.2	2.48934
7.21	2.47585
7.22	2.46796
7.23	2.49263
7.24	2.47881
7.25	2.46006
7.26	2.46598
7.27	2.5196
7.28	2.49131
7.29	2.48737
7.3	2.48342
7.31	2.49691
7.32	2.48737
7.33	2.48638
7.34	2.48704
7.35	2.51039
7.36	2.49362
7.37	2.47618
7.38	2.46993
7.39	2.50316
7.4	2.47059
7.41	2.45414
7.42	2.45414
7.43	2.45875
7.44	2.48769
7.45	2.49329
7.46	2.49723
7.47	2.47585
7.48	2.47651
7.49	2.49888
7.5	2.49921
7.51	2.48046
7.52	2.4798
7.53	2.50941
7.54	2.48243
7.55	2.48473
7.56	2.49197
7.57	2.48473
7.58	2.47256
7.59	2.47125
7.6	2.4696
7.61	2.48177
7.62	2.47618
7.63	2.4696
7.64	2.47684
7.65	2.50842
7.66	2.48243
7.67	2.51796
7.68	2.50085
7.69	2.49362
7.7	2.49954
7.71	2.49559
7.72	2.48375
7.73	2.50052
7.74	2.52487
7.75	2.49033
7.76	2.48638
7.77	2.5071
7.78	2.49723
7.79	2.48144
7.8	2.46697
7.81	2.47519
7.82	2.44131
7.83	2.46993
7.84	2.47125
7.85	2.44
7.86	2.46598
7.87	2.49559
7.88	2.46171
7.89	2.46335
7.9	2.46763
7.91	2.47815
7.92	2.49822
7.93	2.50085
7.94	2.4844
7.95	2.47881
7.96	2.48342
7.97	2.47947
7.98	2.45743
7.99	2.44657
8	2.49658
8.01	2.48638
8.02	2.47388
8.03	2.48638
8.04	2.49493
8.05	2.49362
8.06	2.48144
8.07	2.47552
8.08	2.46269
8.09	2.49197
8.1	2.4798
8.11	2.46401
8.12	2.50052
8.13	2.51796
8.14	2.50052
8.15	2.48802
8.16	2.48769
8.17	2.49691
8.18	2.47848
8.19	2.4719
8.2	2.46894
8.21	2.50579
8.22	2.47848
8.23	2.48046
8.24	2.47059
8.25	2.46763
8.26	2.44888
8.27	2.45414
8.28	2.50941
8.29	2.48802
8.3	2.47618
8.31	2.48013
8.32	2.47289
8.33	2.49
8.34	2.49756
8.35	2.47947
8.36	2.45842
8.37	2.45019
8.38	2.45611
8.39	2.47848
8.4	2.50447
8.41	2.52783
8.42	2.49263
8.43	2.48737
8.44	2.5025
8.45	2.48967
8.46	2.48638
8.47	2.51105
8.48	2.48309
8.49	2.49855
8.5	2.46565
8.51	2.46927
8.52	2.49822
8.53	2.49362
8.54	2.48539
8.55	2.48408
8.56	2.49197
8.57	2.53013
8.58	2.48934
8.59	2.5071
8.6	2.47388
8.61	2.46302
8.62	2.47783
8.63	2.48309
8.64	2.51598
8.65	2.45973
8.66	2.48704
8.67	2.47651
8.68	2.46434
8.69	2.47289
8.7	2.47552
8.71	2.47848
8.72	2.49427
8.73	2.49427
8.74	2.48934
8.75	2.50151
8.76	2.47158
8.77	2.45118
8.78	2.47684
8.79	2.48506
8.8	2.51237
8.81	2.49296
8.82	2.46829
8.83	2.46829
8.84	2.47717
8.85	2.46368
8.86	2.47881
8.87	2.50447
8.88	2.52717
8.89	2.45315
8.9	2.46796
8.91	2.44493
8.92	2.44789
8.93	2.4548
8.94	2.4525
8.95	2.46565
8.96	2.47454
8.97	2.44625
8.98	2.46368
8.99	2.48276
9	2.4525
9.01	2.48473
9.02	2.48802
9.03	2.47815
9.04	2.51697
9.05	2.47125
9.06	2.47059
9.07	2.47223
9.08	2.46335
9.09	2.47421
9.1	2.46598
9.11	2.49098
9.12	2.48572
9.13	2.47717
9.14	2.47256
9.15	2.4946
9.16	2.46894
9.17	2.47618
9.18	2.44131
9.19	2.48046
9.2	2.48079
9.21	2.49131
9.22	2.47947
9.23	2.4821
9.24	2.46302
9.25	2.48046
9.26	2.46171
9.27	2.48408
9.28	2.45118
9.29	2.47552
9.3	2.49987
9.31	2.50085
9.32	2.4548
9.33	2.48013
9.34	2.46763
9.35	2.45348
9.36	2.49065
9.37	2.48079
9.38	2.47256
9.39	2.50052
9.4	2.45414
9.41	2.465
9.42	2.46993
9.43	2.47717
9.44	2.48079
9.45	2.48046
9.46	2.48243
9.47	2.47223
9.48	2.4798
9.49	2.4696
9.5	2.47158
9.51	2.47158
9.52	2.46335
9.53	2.4719
9.54	2.48934
9.55	2.4844
9.56	2.50513
9.57	2.49131
9.58	2.46335
9.59	2.44921
9.6	2.47223
9.61	2.49296
9.62	2.47519
9.63	2.50414
9.64	2.48638
9.65	2.47914
9.66	2.46105
9.67	2.43375
9.68	2.49098
9.69	2.48375
9.7	2.47158
9.71	2.47125
9.72	2.47947
9.73	2.47783
9.74	2.47158
9.75	2.46138
9.76	2.47717
9.77	2.48112
9.78	2.51039
9.79	2.4946
9.8	2.48046
9.81	2.48967
9.82	2.44986
9.83	2.47158
9.84	2.45414
9.85	2.47092
9.86	2.47454
9.87	2.48901
9.88	2.4923
9.89	2.47125
9.9	2.47092
9.91	2.47552
9.92	2.50381
9.93	2.48112
9.94	2.47585
9.95	2.48046
9.96	2.46598
9.97	2.46138
9.98	2.49131
9.99	2.47651
10	2.47388
10.01	2.48835
10.02	2.48276
10.03	2.47223
10.04	2.4594
10.05	2.51401
10.06	2.49427
10.07	2.44394
10.08	2.47947
10.09	2.48539
10.1	2.48079
10.11	2.44526
10.12	2.45546
10.13	2.48901
10.14	2.46565
10.15	2.47651
10.16	2.48408
10.17	2.44789
10.18	2.46796
10.19	2.48342
10.2	2.47355
10.21	2.52092
10.22	2.49131
10.23	2.46829
10.24	2.4798
10.25	2.47454
10.26	2.48901
10.27	2.46269
10.28	2.47914
10.29	2.48342
10.3	2.47289
10.31	2.4923
10.32	2.50019
10.33	2.49033
10.34	2.50612
10.35	2.50612
10.36	2.46796
10.37	2.49098
10.38	2.47289
10.39	2.46171
10.4	2.43506
10.41	2.48967
10.42	2.45579
10.43	2.44032
10.44	2.44164
10.45	2.48408
10.46	2.48704
10.47	2.49427
10.48	2.49526
10.49	2.48704
10.5	2.45579
10.51	2.4594
10.52	2.49033
10.53	2.46894
10.54	2.47158
10.55	2.51862
10.56	2.49098
10.57	2.47684
10.58	2.4844
10.59	2.47783
10.6	2.46467
10.61	2.48704
10.62	2.48243
10.63	2.53079
10.64	2.49394
10.65	2.46302
10.66	2.46204
10.67	2.50809
10.68	2.46598
10.69	2.47026
10.7	2.48704
10.71	2.47815
10.72	2.43703
10.73	2.48243
10.74	2.47158
10.75	2.48375
10.76	2.46434
10.77	2.47322
10.78	2.48901
10.79	2.47059
10.8	2.48177
10.81	2.47585
10.82	2.47322
10.83	2.50151
10.84	2.48539
10.85	2.48375
10.86	2.47651
10.87	2.47454
10.88	2.49329
10.89	2.49987
10.9	2.48375
10.91	2.47717
10.92	2.46697
10.93	2.47355
10.94	2.4844
10.95	2.48967
10.96	2.45842
10.97	2.46072
10.98	2.46105
10.99	2.47618
11	2.47585
11.01	2.47092
11.02	2.49526
11.03	2.48638
11.04	2.45085
11.05	2.4798
11.06	2.51237
11.07	2.47651
11.08	2.48046
11.09	2.48473
11.1	2.47388
11.11	2.48835
11.12	2.47059
11.13	2.46894
11.14	2.47947
11.15	2.49921
11.16	2.51302
11.17	2.49723
11.18	2.4798
11.19	2.46631
11.2	2.46697
11.21	2.48408
11.22	2.50151
11.23	2.47815
11.24	2.46763
11.25	2.4719
11.26	2.47717
11.27	2.46829
11.28	2.46072
11.29	2.46269
11.3	2.47519
11.31	2.49427
11.32	2.46763
11.33	2.49526
11.34	2.47914
11.35	2.47848
11.36	2.44756
11.37	2.46138
11.38	2.48046
11.39	2.4775
11.4	2.47815
11.41	2.4798
11.42	2.47322
11.43	2.46993
11.44	2.46993
11.45	2.49526
11.46	2.51105
11.47	2.47618
11.48	2.49691
11.49	2.45842
11.5	2.46302
11.51	2.44921
11.52	2.44328
11.53	2.44328
11.54	2.46302
11.55	2.47783
11.56	2.46894
11.57	2.46993
11.58	2.46927
11.59	2.48144
11.6	2.48835
11.61	2.47092
11.62	2.45315
11.63	2.46533
11.64	2.47552
11.65	2.4696
11.66	2.49559
11.67	2.47552
11.68	2.46796
11.69	2.46697
11.7	2.46171
11.71	2.47914
11.72	2.48901
11.73	2.47519
11.74	2.465
11.75	2.45184
11.76	2.45842
11.77	2.50381
11.78	2.48835
11.79	2.44493
11.8	2.45677
11.81	2.47618
11.82	2.47421
11.83	2.48473
11.84	2.47684
11.85	2.49362
11.86	2.47388
11.87	2.49888
11.88	2.48539
11.89	2.46565
11.9	2.46335
11.91	2.48704
11.92	2.49526
11.93	2.46927
11.94	2.46467
11.95	2.48112
11.96	2.48704
11.97	2.52092
11.98	2.49098
11.99	2.48901
12	2.46993
12.01	2.47125
12.02	2.47256
12.03	2.48408
12.04	2.47388
12.05	2.46401
12.06	2.49954
12.07	2.46565
12.08	2.44954
12.09	2.49329
12.1	2.4923
12.11	2.49296
12.12	2.51006
12.13	2.50052
12.14	2.4719
12.15	2.48177
12.16	2.45842
12.17	2.45579
12.18	2.44986
12.19	2.46598
12.2	2.4696
12.21	2.47355
12.22	2.47947
12.23	2.43934
12.24	2.47158
12.25	2.49065
12.26	2.4696
12.27	2.45776
12.28	2.48473
12.29	2.48802
12.3	2.47223
12.31	2.4696
12.32	2.51796
12.33	2.50348
12.34	2.46664
12.35	2.49098
12.36	2.46598
12.37	2.47651
12.38	2.46565
12.39	2.49
12.4	2.47552
12.41	2.4719
12.42	2.47125
12.43	2.46269
12.44	2.48934
12.45	2.47848
12.46	2.46302
12.47	2.50842
12.48	2.47651
12.49	2.47585
12.5	2.465
12.51	2.47256
12.52	2.48473
12.53	2.50052
12.54	2.45776
12.55	2.46763
12.56	2.45315
12.57	2.45282
12.58	2.46927
12.59	2.47026
12.6	2.46335
12.61	2.4525
12.62	2.48144
12.63	2.48506
12.64	2.47783
12.65	2.46236
12.66	2.46467
12.67	2.46302
12.68	2.47223
12.69	2.48046
12.7	2.48802
12.71	2.49197
12.72	2.4798
12.73	2.48802
12.74	2.4696
12.75	2.4696
12.76	2.4696
12.77	2.48046
12.78	2.48375
12.79	2.48375
12.8	2.47519
12.81	2.50184
12.82	2.49394
12.83	2.4821
12.84	2.50677
12.85	2.47651
12.86	2.45907
12.87	2.4423
12.88	2.46927
12.89	2.49526
12.9	2.47717
12.91	2.46533
12.92	2.48112
12.93	2.48934
12.94	2.46993
12.95	2.45414
12.96	2.48506
12.97	2.46204
12.98	2.43144
12.99	2.46598
13	2.47947
13.01	2.47848
13.02	2.46565
13.03	2.48144
13.04	2.4821
13.05	2.48342
13.06	2.47421
13.07	2.46434
13.08	2.47684
13.09	2.48243
13.1	2.4798
13.11	2.46697
13.12	2.49197
13.13	2.47059
13.14	2.49888
13.15	2.46993
13.16	2.47618
13.17	2.48704
13.18	2.46368
13.19	2.47026
13.2	2.47552
13.21	2.44131
13.22	2.44559
13.23	2.45381
13.24	2.49691
13.25	2.48375
13.26	2.47552
13.27	2.48342
13.28	2.47454
13.29	2.46171
13.3	2.47585
13.31	2.46039
13.32	2.44197
13.33	2.44263
13.34	2.4821
13.35	2.48802
13.36	2.4775
13.37	2.45151
13.38	2.48375
13.39	2.46598
13.4	2.45809
13.41	2.50052
13.42	2.44263
13.43	2.46171
13.44	2.51171
13.45	2.46335
13.46	2.48704
13.47	2.44789
13.48	2.45546
13.49	2.49658
13.5	2.50217
13.51	2.48112
13.52	2.47717
13.53	2.49559
13.54	2.47092
13.55	2.47848
13.56	2.48704
13.57	2.46829
13.58	2.47026
13.59	2.46269
13.6	2.47388
13.61	2.48309
13.62	2.49592
13.63	2.49625
13.64	2.47486
13.65	2.46533
13.66	2.44394
13.67	2.45973
13.68	2.47651
13.69	2.45019
13.7	2.44954
13.71	2.47256
13.72	2.46236
13.73	2.42421
13.74	2.47454
13.75	2.48013
13.76	2.48013
13.77	2.47519
13.78	2.45579
13.79	2.46796
13.8	2.47815
13.81	2.44954
13.82	2.43703
13.83	2.47355
13.84	2.48605
13.85	2.45184
13.86	2.47158
13.87	2.45019
13.88	2.4594
13.89	2.48013
13.9	2.52026
13.91	2.48769
13.92	2.47618
13.93	2.49493
13.94	2.46697
13.95	2.45546
13.96	2.46401
13.97	2.45513
13.98	2.47388
13.99	2.47454
14	2.48737
14.01	2.47223
14.02	2.47519
14.03	2.50579
14.04	2.49164
14.05	2.48243
14.06	2.47618
14.07	2.46894
14.08	2.47717
14.09	2.44657
14.1	2.47881
14.11	2.47519
14.12	2.43572
14.13	2.45315
14.14	2.46861
14.15	2.47783
14.16	2.47552
14.17	2.45184
14.18	2.46993
14.19	2.49559
14.2	2.47519
14.21	2.4798
14.22	2.47289
14.23	2.48177
14.24	2.46302
14.25	2.44263
14.26	2.46565
14.27	2.46105
14.28	2.44657
14.29	2.4446
14.3	2.46861
14.31	2.44789
14.32	2.45677
14.33	2.47552
14.34	2.49098
14.35	2.45809
14.36	2.48967
14.37	2.465
14.38	2.47815
14.39	2.47092
14.4	2.46894
14.41	2.4821
14.42	2.48671
14.43	2.48243
14.44	2.47881
14.45	2.45085
14.46	2.45809
14.47	2.45677
14.48	2.45809
14.49	2.44592
14.5	2.4719
14.51	2.47158
14.52	2.47881
14.53	2.45546
14.54	2.46533
14.55	2.47618
14.56	2.47947
14.57	2.44657
14.58	2.47717
14.59	2.48506
14.6	2.47289
14.61	2.4525
14.62	2.45381
14.63	2.47519
14.64	2.45282
14.65	2.4571
14.66	2.4775
14.67	2.48243
14.68	2.44427
14.69	2.48638
14.7	2.50348
14.71	2.48835
14.72	2.4594
14.73	2.45052
14.74	2.47914
14.75	2.48177
14.76	2.46467
14.77	2.47585
14.78	2.47783
14.79	2.48934
14.8	2.48605
14.81	2.49394
14.82	2.49296
14.83	2.4594
14.84	2.4696
14.85	2.47026
14.86	2.46829
14.87	2.48539
14.88	2.46401
14.89	2.45381
14.9	2.45282
14.91	2.48572
14.92	2.47388
14.93	2.46598
14.94	2.47519
14.95	2.48013
14.96	2.48375
14.97	2.48868
14.98	2.47092
14.99	2.49
15	2.49789
15.01	2.48901
15.02	2.47388
15.03	2.44789
15.04	2.43605
15.05	2.47881
15.06	2.515
15.07	2.49131
15.08	2.47717
15.09	2.47585
15.1	2.49691
15.11	2.48737
15.12	2.47454
15.13	2.47914
15.14	2.46993
15.15	2.46894
15.16	2.49033
15.17	2.47486
15.18	2.48704
15.19	2.47684
15.2	2.50151
15.21	2.4844
15.22	2.46335
15.23	2.49098
15.24	2.48737
15.25	2.49789
15.26	2.48704
15.27	2.48013
15.28	2.43539
15.29	2.4571
15.3	2.49394
15.31	2.47355
15.32	2.49526
15.33	2.50184
15.34	2.44361
15.35	2.46664
15.36	2.46697
15.37	2.47783
15.38	2.48408
15.39	2.44032
15.4	2.44921
15.41	2.46796
15.42	2.48276
15.43	2.45513
15.44	2.48013
15.45	2.45217
15.46	2.46763
15.47	2.46138
15.48	2.47059
15.49	2.46467
15.5	2.44328
15.51	2.49164
15.52	2.48046
15.53	2.4525
15.54	2.46697
15.55	2.45579
15.56	2.46236
15.57	2.47125
15.58	2.48737
15.59	2.45019
15.6	2.44427
15.61	2.47651
15.62	2.47388
15.63	2.45184
15.64	2.46861
15.65	2.4775
15.66	2.48539
15.67	2.50184
15.68	2.46565
15.69	2.47947
15.7	2.48835
15.71	2.47059
15.72	2.44098
15.73	2.4923
15.74	2.47519
15.75	2.44723
15.76	2.49098
15.77	2.49559
15.78	2.45973
15.79	2.46565
15.8	2.45579
15.81	2.45611
15.82	2.44296
15.83	2.45611
15.84	2.49329
15.85	2.47618
15.86	2.45348
15.87	2.47552
15.88	2.46697
15.89	2.44197
15.9	2.44855
15.91	2.49164
15.92	2.47684
15.93	2.45546
15.94	2.45776
15.95	2.45513
15.96	2.49263
15.97	2.47947
15.98	2.47289
15.99	2.48013
16	2.47454
16.01	2.4844
16.02	2.46401
16.03	2.46796
16.04	2.48967
16.05	2.47421
16.06	2.47651
16.07	2.48967
16.08	2.47947
16.09	2.47914
16.1	2.46236
16.11	2.49789
16.12	2.4923
16.13	2.47519
16.14	2.47585
16.15	2.46894
16.16	2.45776
16.17	2.50118
16.18	2.47618
16.19	2.45546
16.2	2.45611
16.21	2.48802
16.22	2.46664
16.23	2.45579
16.24	2.45546
16.25	2.46631
16.26	2.48704
16.27	2.47289
16.28	2.44296
16.29	2.46269
16.3	2.48276
16.31	2.46171
16.32	2.4798
16.33	2.47881
16.34	2.45052
16.35	2.45973
16.36	2.4594
16.37	2.49592
16.38	2.4821
16.39	2.45513
16.4	2.45085
16.41	2.46171
16.42	2.46335
16.43	2.48276
16.44	2.48572
16.45	2.49098
16.46	2.50447
16.47	2.4923
16.48	2.48177
16.49	2.44394
16.5	2.47092
16.51	2.46598
16.52	2.47914
16.53	2.46204
16.54	2.48868
16.55	2.45447
16.56	2.44986
16.57	2.46565
16.58	2.44756
16.59	2.46368
16.6	2.50316
16.61	2.47322
16.62	2.45546
16.63	2.48835
16.64	2.48901
16.65	2.44855
16.66	2.44427
16.67	2.45184
16.68	2.47881
16.69	2.47914
16.7	2.45513
16.71	2.46039
16.72	2.45118
16.73	2.45644
16.74	2.4571
16.75	2.46335
16.76	2.47322
16.77	2.47519
16.78	2.46598
16.79	2.48342
16.8	2.47322
16.81	2.47552
16.82	2.48243
16.83	2.50612
16.84	2.46138
16.85	2.45513
16.86	2.49065
16.87	2.49197
16.88	2.46796
16.89	2.49197
16.9	2.43934
16.91	2.48079
16.92	2.48704
16.93	2.47486
16.94	2.48276
16.95	2.47092
16.96	2.4719
16.97	2.46631
16.98	2.46796
16.99	2.44493
17	2.44986
17.01	2.45842
17.02	2.45118
17.03	2.46335
17.04	2.47322
17.05	2.44986
17.06	2.44131
17.07	2.46204
17.08	2.4923
17.09	2.48868
17.1	2.45579
17.11	2.46335
17.12	2.44131
17.13	2.47783
17.14	2.48835
17.15	2.46631
17.16	2.46072
17.17	2.50316
17.18	2.49098
17.19	2.46006
17.2	2.47783
17.21	2.46993
17.22	2.47059
17.23	2.45052
17.24	2.45414
17.25	2.48737
17.26	2.47519
17.27	2.48243
17.28	2.49954
17.29	2.46171
17.3	2.44526
17.31	2.44986
17.32	2.47355
17.33	2.49164
17.34	2.47289
17.35	2.47454
17.36	2.48967
17.37	2.48276
17.38	2.45579
17.39	2.42947
17.4	2.45282
17.41	2.46236
17.42	2.44164
17.43	2.45644
17.44	2.47717
17.45	2.48506
17.46	2.4469
17.47	2.47256
17.48	2.48605
17.49	2.47684
17.5	2.4594
17.51	2.44657
17.52	2.43769
17.53	2.45611
17.54	2.44954
17.55	2.46105
17.56	2.48638
17.57	2.47059
17.58	2.47158
17.59	2.46039
17.6	2.49263
17.61	2.47092
17.62	2.4469
17.63	2.44131
17.64	2.46993
17.65	2.50019
17.66	2.47585
17.67	2.46171
17.68	2.45217
17.69	2.43736
17.7	2.44263
17.71	2.44493
17.72	2.47059
17.73	2.47421
17.74	2.45184
17.75	2.45842
17.76	2.4571
17.77	2.47848
17.78	2.48934
17.79	2.48638
17.8	2.46993
17.81	2.46138
17.82	2.42289
17.83	2.48605
17.84	2.47454
17.85	2.45611
17.86	2.4775
17.87	2.47881
17.88	2.4798
17.89	2.46302
17.9	2.47388
17.91	2.49756
17.92	2.46763
17.93	2.45052
17.94	2.48342
17.95	2.47815
17.96	2.49263
17.97	2.51006
17.98	2.48539
17.99	2.47651
18	2.48605
18.01	2.49592
18.02	2.45907
18.03	2.45546
18.04	2.43671
18.05	2.44394
18.06	2.4775
18.07	2.46335
18.08	2.48309
18.09	2.45546
18.1	2.46269
18.11	2.44
18.12	2.46368
18.13	2.45184
18.14	2.46335
18.15	2.47717
18.16	2.46434
18.17	2.44789
18.18	2.46565
18.19	2.46368
18.2	2.4469
18.21	2.46927
18.22	2.46829
18.23	2.4696
18.24	2.47289
18.25	2.47454
18.26	2.4571
18.27	2.46763
18.28	2.46927
18.29	2.44954
18.3	2.45644
18.31	2.47618
18.32	2.48934
18.33	2.46302
18.34	2.46401
18.35	2.49329
18.36	2.4798
18.37	2.42848
18.38	2.465
18.39	2.45217
18.4	2.47322
18.41	2.47454
18.42	2.49921
18.43	2.48046
18.44	2.48967
18.45	2.46105
18.46	2.46598
18.47	2.45677
18.48	2.47783
18.49	2.46861
18.5	2.47486
18.51	2.47585
18.52	2.44723
18.53	2.45217
18.54	2.49559
18.55	2.48769
18.56	2.48375
18.57	2.45677
18.58	2.47223
18.59	2.46401
18.6	2.44361
18.61	2.46467
18.62	2.46894
18.63	2.47815
18.64	2.46565
18.65	2.45776
18.66	2.49394
18.67	2.47388
18.68	2.47552
18.69	2.47519
18.7	2.48704
18.71	2.49394
18.72	2.46171
18.73	2.49394
18.74	2.4673
18.75	2.46171
18.76	2.47881
18.77	2.49362
18.78	2.49329
18.79	2.46598
18.8	2.4923
18.81	2.45151
18.82	2.49427
18.83	2.45546
18.84	2.47092
18.85	2.47322
18.86	2.49164
18.87	2.47585
18.88	2.47618
18.89	2.48309
18.9	2.48539
18.91	2.48013
18.92	2.50447
18.93	2.47783
18.94	2.4469
18.95	2.46236
18.96	2.46763
18.97	2.46697
18.98	2.48539
18.99	2.47421
19	2.51072
19.01	2.49362
19.02	2.4594
19.03	2.47355
19.04	2.46302
19.05	2.46631
19.06	2.45842
19.07	2.48737
19.08	2.47092
19.09	2.44986
19.1	2.4571
19.11	2.46829
19.12	2.47026
19.13	2.45875
19.14	2.46796
19.15	2.48375
19.16	2.4525
19.17	2.47322
19.18	2.46171
19.19	2.50579
19.2	2.47486
19.21	2.49427
19.22	2.50579
19.23	2.48013
19.24	2.46993
19.25	2.4696
19.26	2.45315
19.27	2.47519
19.28	2.45315
19.29	2.48112
19.3	2.48079
19.31	2.49658
19.32	2.45085
19.33	2.46434
19.34	2.46763
19.35	2.47651
19.36	2.47618
19.37	2.48276
19.38	2.49362
19.39	2.45611
19.4	2.48342
19.41	2.47454
19.42	2.44526
19.43	2.47519
19.44	2.48572
19.45	2.47848
19.46	2.47026
19.47	2.45776
19.48	2.46467
19.49	2.48737
19.5	2.47289
19.51	2.46861
19.52	2.46072
19.53	2.46105
19.54	2.44592
19.55	2.49658
19.56	2.48934
19.57	2.47026
19.58	2.44526
19.59	2.48737
19.6	2.46368
19.61	2.46565
19.62	2.43638
19.63	2.43802
19.64	2.46894
19.65	2.45743
19.66	2.47289
19.67	2.48506
19.68	2.46796
19.69	2.44625
19.7	2.42618
19.71	2.47651
19.72	2.47815
19.73	2.48572
19.74	2.48506
19.75	2.46269
19.76	2.49427
19.77	2.48276
19.78	2.4798
19.79	2.46565
19.8	2.48243
19.81	2.47783
19.82	2.48243
19.83	2.46927
19.84	2.49065
19.85	2.46105
19.86	2.46664
19.87	2.47026
19.88	2.47092
19.89	2.44032
19.9	2.46368
19.91	2.46927
19.92	2.44526
19.93	2.47947
19.94	2.47519
19.95	2.49263
19.96	2.47026
19.97	2.49131
19.98	2.48079
19.99	2.46664
20	2.47223
20.01	2.46204
20.02	2.49394
20.03	2.4594
20.04	2.45973
20.05	2.45151
20.06	2.44954
20.07	2.47848
20.08	2.47454
20.09	2.48243
20.1	2.48046
20.11	2.47454
20.12	2.47125
20.13	2.49987
20.14	2.47651
20.15	2.46894
20.16	2.4594
20.17	2.46829
20.18	2.46302
20.19	2.47158
20.2	2.44164
20.21	2.46796
20.22	2.48342
20.23	2.48079
20.24	2.4423
20.25	2.44723
20.26	2.47618
20.27	2.49756
20.28	2.44888
20.29	2.4469
20.3	2.46434
20.31	2.46565
20.32	2.45447
20.33	2.48737
20.34	2.47552
20.35	2.45907
20.36	2.44296
20.37	2.47519
20.38	2.4923
20.39	2.48112
20.4	2.46204
20.41	2.48737
20.42	2.48276
20.43	2.47585
20.44	2.47322
20.45	2.4446
20.46	2.42848
20.47	2.47848
20.48	2.48802
20.49	2.46236
20.5	2.46204
20.51	2.4923
20.52	2.4525
20.53	2.47486
20.54	2.45677
20.55	2.47388
20.56	2.47848
20.57	2.45151
20.58	2.47388
20.59	2.46861
20.6	2.46565
20.61	2.47388
20.62	2.4571
20.63	2.43177
20.64	2.46763
20.65	2.46072
20.66	2.47125
20.67	2.47815
20.68	2.46993
20.69	2.4775
20.7	2.46171
20.71	2.4548
20.72	2.47947
20.73	2.45907
20.74	2.44526
20.75	2.44657
20.76	2.45513
20.77	2.44
20.78	2.45381
20.79	2.43967
20.8	2.47092
20.81	2.46763
20.82	2.47618
20.83	2.45842
20.84	2.44493
20.85	2.46927
20.86	2.47026
20.87	2.47421
20.88	2.45381
20.89	2.47585
20.9	2.48013
20.91	2.46236
20.92	2.47355
20.93	2.49263
20.94	2.46204
20.95	2.50217
20.96	2.49625
20.97	2.45151
20.98	2.465
20.99	2.46401
21	2.46861
21.01	2.48737
21.02	2.47388
21.03	2.45677
21.04	2.46401
21.05	2.45513
21.06	2.46368
21.07	2.47322
21.08	2.45776
21.09	2.45611
21.1	2.46302
21.11	2.46039
21.12	2.47158
21.13	2.45743
21.14	2.47256
21.15	2.4571
21.16	2.47026
21.17	2.49394
21.18	2.44986
21.19	2.4321
21.2	2.46598
21.21	2.46829
21.22	2.45414
21.23	2.45118
21.24	2.45381
21.25	2.4673
21.26	2.44592
21.27	2.44493
21.28	2.49789
21.29	2.46269
21.3	2.46269
21.31	2.47815
21.32	2.45118
21.33	2.48079
21.34	2.45019
21.35	2.45743
21.36	2.45151
21.37	2.45842
21.38	2.4798
21.39	2.47421
21.4	2.4798
21.41	2.47815
21.42	2.49065
21.43	2.44427
21.44	2.48013
21.45	2.47717
21.46	2.45019
21.47	2.47421
21.48	2.48704
21.49	2.47486
21.5	2.48112
21.51	2.45546
21.52	2.45085
21.53	2.43111
21.54	2.47947
21.55	2.4696
21.56	2.45019
21.57	2.47881
21.58	2.45776
21.59	2.44888
21.6	2.44296
21.61	2.47289
21.62	2.46697
21.63	2.44427
21.64	2.46467
21.65	2.48112
21.66	2.46335
21.67	2.49592
21.68	2.47223
21.69	2.45875
21.7	2.44888
21.71	2.45414
21.72	2.49888
21.73	2.48473
21.74	2.45085
21.75	2.47815
21.76	2.48276
21.77	2.50973
21.78	2.46138
21.79	2.46829
21.8	2.45973
21.81	2.44625
21.82	2.47651
21.83	2.48408
21.84	2.47125
21.85	2.44921
21.86	2.44065
21.87	2.46927
21.88	2.46697
21.89	2.465
21.9	2.46072
21.91	2.42421
21.92	2.44723
21.93	2.45776
21.94	2.47125
21.95	2.4469
21.96	2.43901
21.97	2.48473
21.98	2.48835
21.99	2.46993
22	2.46927
22.01	2.47717
22.02	2.44427
22.03	2.46664
22.04	2.4775
22.05	2.48046
22.06	2.4571
22.07	2.46829
22.08	2.49789
22.09	2.4571
22.1	2.47717
22.11	2.45743
22.12	2.47355
22.13	2.4719
22.14	2.4719
22.15	2.45677
22.16	2.46269
22.17	2.47421
22.18	2.47914
22.19	2.48243
22.2	2.47256
22.21	2.4673
22.22	2.48934
22.23	2.46171
22.24	2.43671
22.25	2.49131
22.26	2.45875
22.27	2.46894
22.28	2.46105
22.29	2.47618
22.3	2.43868
22.31	2.465
22.32	2.47421
22.33	2.46927
22.34	2.47223
22.35	2.48835
22.36	2.47322
22.37	2.43868
22.38	2.46039
22.39	2.43802
22.4	2.47454
22.41	2.49033
22.42	2.48342
22.43	2.47059
22.44	2.45315
22.45	2.5127
22.46	2.48013
22.47	2.46368
22.48	2.49921
22.49	2.47421
22.5	2.4775
22.51	2.44592
22.52	2.44855
22.53	2.50546
22.54	2.47421
22.55	2.43868
22.56	2.4594
22.57	2.47125
22.58	2.48901
22.59	2.48177
22.6	2.45875
22.61	2.45875
22.62	2.47256
22.63	2.50414
22.64	2.46598
22.65	2.48737
22.66	2.46467
22.67	2.47092
22.68	2.48737
22.69	2.47256
22.7	2.45447
22.71	2.45875
22.72	2.45513
22.73	2.49658
22.74	2.4719
22.75	2.44789
22.76	2.46039
22.77	2.4571
22.78	2.47486
22.79	2.46664
22.8	2.45184
22.81	2.47914
22.82	2.46664
22.83	2.46565
22.84	2.48177
22.85	2.48079
22.86	2.49394
22.87	2.46138
22.88	2.45546
22.89	2.46598
22.9	2.43868
22.91	2.43111
22.92	2.45348
22.93	2.47355
22.94	2.45776
22.95	2.48408
22.96	2.47552
22.97	2.45546
22.98	2.44427
22.99	2.46171
23	2.46993
23.01	2.44822
23.02	2.47881
23.03	2.46664
23.04	2.4673
23.05	2.48177
23.06	2.47092
23.07	2.46829
23.08	2.47848
23.09	2.46236
23.1	2.48737
23.11	2.49756
23.12	2.47158
23.13	2.46302
23.14	2.47092
23.15	2.4775
23.16	2.48342
23.17	2.47421
23.18	2.46236
23.19	2.46368
23.2	2.47355
23.21	2.45776
23.22	2.47651
23.23	2.48737
23.24	2.47388
23.25	2.45611
23.26	2.45348
23.27	2.46598
23.28	2.46302
23.29	2.45315
23.3	2.45907
23.31	2.42421
23.32	2.46302
23.33	2.46697
23.34	2.49
23.35	2.46335
23.36	2.46039
23.37	2.48934
23.38	2.47092
23.39	2.44986
23.4	2.46204
23.41	2.44164
23.42	2.44789
23.43	2.4798
23.44	2.47519
23.45	2.4469
23.46	2.46993
23.47	2.47585
23.48	2.48112
23.49	2.46368
23.5	2.46236
23.51	2.45743
23.52	2.4696
23.53	2.49329
23.54	2.45513
23.55	2.44164
23.56	2.46368
23.57	2.49164
23.58	2.46533
23.59	2.48046
23.6	2.44131
23.61	2.44361
23.62	2.46796
23.63	2.48046
23.64	2.45513
23.65	2.47322
23.66	2.45809
23.67	2.45579
23.68	2.46204
23.69	2.45019
23.7	2.48539
23.71	2.46368
23.72	2.46467
23.73	2.45743
23.74	2.46894
23.75	2.44855
23.76	2.46664
23.77	2.46664
23.78	2.44197
23.79	2.45809
23.8	2.47881
23.81	2.47355
23.82	2.46006
23.83	2.47783
23.84	2.48243
23.85	2.46335
23.86	2.46565
23.87	2.50612
23.88	2.47388
23.89	2.48276
23.9	2.48967
23.91	2.47684
23.92	2.48506
23.93	2.50579
23.94	2.44723
23.95	2.48737
23.96	2.48243
23.97	2.46204
23.98	2.45776
23.99	2.44131
24	2.4594
24.01	2.45414
24.02	2.44394
24.03	2.45447
24.04	2.49131
24.05	2.47651
24.06	2.44921
24.07	2.46829
24.08	2.47388
24.09	2.48276
24.1	2.4571
24.11	2.46269
24.12	2.48112
24.13	2.47223
24.14	2.46796
24.15	2.46368
24.16	2.45085
24.17	2.43111
24.18	2.43539
24.19	2.48243
24.2	2.48079
24.21	2.47552
24.22	2.47486
24.23	2.45546
24.24	2.47125
24.25	2.46006
24.26	2.48375
24.27	2.46401
24.28	2.47519
24.29	2.43276
24.3	2.4548
24.31	2.45579
24.32	2.47158
24.33	2.47815
24.34	2.47059
24.35	2.45118
24.36	2.46302
24.37	2.4775
24.38	2.45513
24.39	2.43868
24.4	2.48177
24.41	2.49888
24.42	2.4548
24.43	2.47289
24.44	2.46467
24.45	2.46171
24.46	2.45875
24.47	2.48046
24.48	2.46631
24.49	2.46171
24.5	2.48802
24.51	2.48506
24.52	2.50612
24.53	2.46401
24.54	2.4673
24.55	2.4548
24.56	2.47355
24.57	2.45907
24.58	2.45809
24.59	2.46533
24.6	2.49592
24.61	2.47848
24.62	2.45315
24.63	2.47684
24.64	2.45217
24.65	2.44986
24.66	2.46138
24.67	2.43177
24.68	2.47421
24.69	2.46335
24.7	2.43671
24.71	2.4594
24.72	2.46039
24.73	2.46664
24.74	2.4798
24.75	2.49131
24.76	2.50546
24.77	2.48506
24.78	2.47618
24.79	2.46861
24.8	2.45447
24.81	2.45809
24.82	2.47618
24.83	2.46598
24.84	2.46763
24.85	2.43967
24.86	2.45118
24.87	2.43506
24.88	2.43605
24.89	2.42947
24.9	2.44723
24.91	2.47223
24.92	2.48506
24.93	2.49756
24.94	2.50052
24.95	2.44954
24.96	2.46302
24.97	2.43013
24.98	2.43638
24.99	2.49263
25	2.48539
25.01	2.45842
25.02	2.4844
25.03	2.47815
25.04	2.45809
25.05	2.46533
25.06	2.45282
25.07	2.42618
25.08	2.46204
25.09	2.47059
25.1	2.48375
25.11	2.4446
25.12	2.47092
25.13	2.46993
25.14	2.45973
25.15	2.43671
25.16	2.45644
25.17	2.47783
25.18	2.50546
25.19	2.46763
25.2	2.45875
25.21	2.4469
25.22	2.46171
25.23	2.44723
25.24	2.4696
25.25	2.44065
25.26	2.47125
25.27	2.46763
25.28	2.45644
25.29	2.45842
25.3	2.47355
25.31	2.47421
25.32	2.48013
25.33	2.44394
25.34	2.44493
25.35	2.4548
25.36	2.4673
25.37	2.47454
25.38	2.47125
25.39	2.43473
25.4	2.43473
25.41	2.4469
25.42	2.45546
25.43	2.45546
25.44	2.45414
25.45	2.44822
25.46	2.44361
25.47	2.45381
25.48	2.44723
25.49	2.48046
25.5	2.49427
25.51	2.46269
25.52	2.44559
25.53	2.47783
25.54	2.47125
25.55	2.48079
25.56	2.43342
25.57	2.47585
25.58	2.47421
25.59	2.45052
25.6	2.47092
25.61	2.48539
25.62	2.48967
25.63	2.4696
25.64	2.47618
25.65	2.48079
25.66	2.45973
25.67	2.47947
25.68	2.48769
25.69	2.50283
25.7	2.47783
25.71	2.51105
25.72	2.48934
25.73	2.48605
25.74	2.46861
25.75	2.44723
25.76	2.45513
25.77	2.45282
25.78	2.46072
25.79	2.46565
25.8	2.47552
25.81	2.48605
25.82	2.49098
25.83	2.47158
25.84	2.47059
25.85	2.47322
25.86	2.48276
25.87	2.48967
25.88	2.46204
25.89	2.45776
25.9	2.47651
25.91	2.46894
25.92	2.45973
25.93	2.46565
25.94	2.45875
25.95	2.46829
25.96	2.45348
25.97	2.45381
25.98	2.46039
25.99	2.45217
26	2.45743
26.01	2.46927
26.02	2.45842
26.03	2.4673
26.04	2.46171
26.05	2.45447
26.06	2.43375
26.07	2.47092
26.08	2.44559
26.09	2.44986
26.1	2.48934
26.11	2.47881
26.12	2.48309
26.13	2.44921
26.14	2.4696
26.15	2.45579
26.16	2.46565
26.17	2.46533
26.18	2.48177
26.19	2.48704
26.2	2.45743
26.21	2.47421
26.22	2.44493
26.23	2.46861
26.24	2.46796
26.25	2.47256
26.26	2.47947
26.27	2.48079
26.28	2.46171
26.29	2.43671
26.3	2.45611
26.31	2.45052
26.32	2.43802
26.33	2.47618
26.34	2.47289
26.35	2.46401
26.36	2.50019
26.37	2.47585
26.38	2.46993
26.39	2.44592
26.4	2.44855
26.41	2.48243
26.42	2.45447
26.43	2.49033
26.44	2.48144
26.45	2.49065
26.46	2.44921
26.47	2.46796
26.48	2.43605
26.49	2.4469
26.5	2.44855
26.51	2.46072
26.52	2.45414
26.53	2.4696
26.54	2.50612
26.55	2.50447
26.56	2.45052
26.57	2.45579
26.58	2.48934
26.59	2.47881
26.6	2.47256
26.61	2.46664
26.62	2.50447
26.63	2.49789
26.64	2.44625
26.65	2.44328
26.66	2.47881
26.67	2.45677
26.68	2.4594
26.69	2.47454
26.7	2.48934
26.71	2.48638
26.72	2.49625
26.73	2.48967
26.74	2.45875
26.75	2.45611
26.76	2.42881
26.77	2.44625
26.78	2.44493
26.79	2.46368
26.8	2.45677
26.81	2.46664
26.82	2.47059
26.83	2.46697
26.84	2.47158
26.85	2.48177
26.86	2.48572
26.87	2.46072
26.88	2.4594
26.89	2.47256
26.9	2.45513
26.91	2.46105
26.92	2.46368
26.93	2.44032
26.94	2.47256
26.95	2.46763
26.96	2.46335
26.97	2.46861
26.98	2.4571
26.99	2.4525
27	2.47223
27.01	2.52881
27.02	2.48934
27.03	2.46664
27.04	2.46664
27.05	2.47848
27.06	2.46894
27.07	2.46401
27.08	2.49033
27.09	2.44197
27.1	2.45151
27.11	2.47717
27.12	2.49592
27.13	2.47454
27.14	2.45085
27.15	2.4844
27.16	2.48835
27.17	2.51829
27.18	2.49362
27.19	2.48079
27.2	2.47125
27.21	2.47223
27.22	2.44263
27.23	2.44296
27.24	2.4469
27.25	2.43506
27.26	2.4525
27.27	2.42585
27.28	2.43835
27.29	2.50348
27.3	2.48276
27.31	2.4673
27.32	2.48934
27.33	2.45282
27.34	2.47783
27.35	2.46368
27.36	2.44394
27.37	2.44756
27.38	2.43506
27.39	2.45743
27.4	2.48112
27.41	2.48243
27.42	2.47256
27.43	2.46796
27.44	2.49
27.45	2.49691
27.46	2.50644
27.47	2.47783
27.48	2.4469
27.49	2.44296
27.5	2.45842
27.51	2.46105
27.52	2.46993
27.53	2.47026
27.54	2.46927
27.55	2.45184
27.56	2.45151
27.57	2.44
27.58	2.47486
27.59	2.46927
27.6	2.47848
27.61	2.44921
27.62	2.45348
27.63	2.46368
27.64	2.48802
27.65	2.4321
27.66	2.42947
27.67	2.42486
27.68	2.43901
27.69	2.48177
27.7	2.46236
27.71	2.48046
27.72	2.46039
27.73	2.44394
27.74	2.42453
27.75	2.45809
27.76	2.44888
27.77	2.47848
27.78	2.4594
27.79	2.47322
27.8	2.45842
27.81	2.4548
27.82	2.44822
27.83	2.48835
27.84	2.48835
27.85	2.47717
27.86	2.4673
27.87	2.46763
27.88	2.46598
27.89	2.47651
27.9	2.48769
27.91	2.4594
27.92	2.44855
27.93	2.48506
27.94	2.4923
27.95	2.46796
27.96	2.47881
27.97	2.50052
27.98	2.46565
27.99	2.45118
28	2.46993
28.01	2.44954
28.02	2.45381
28.03	2.43967
28.04	2.46763
28.05	2.46236
28.06	2.4775
28.07	2.47651
28.08	2.45315
28.09	2.45151
28.1	2.44197
28.11	2.48177
28.12	2.48243
28.13	2.44789
28.14	2.465
28.15	2.48737
28.16	2.46269
28.17	2.46598
28.18	2.46467
28.19	2.44888
28.2	2.46829
28.21	2.46039
28.22	2.46072
28.23	2.46204
28.24	2.45842
28.25	2.46894
28.26	2.4344
28.27	2.46006
28.28	2.47059
28.29	2.48112
28.3	2.45743
28.31	2.46368
28.32	2.44197
28.33	2.46861
28.34	2.45579
28.35	2.43375
28.36	2.44197
28.37	2.46894
28.38	2.46105
28.39	2.45907
28.4	2.44625
28.41	2.44032
28.42	2.45677
28.43	2.45579
28.44	2.48473
28.45	2.46006
28.46	2.46138
28.47	2.45842
28.48	2.46796
28.49	2.48243
28.5	2.48276
28.51	2.47684
28.52	2.47684
28.53	2.48934
28.54	2.4696
28.55	2.49658
28.56	2.48671
28.57	2.4923
28.58	2.47618
28.59	2.47289
28.6	2.4469
28.61	2.45546
28.62	2.45644
28.63	2.48572
28.64	2.45282
28.65	2.46204
28.66	2.46105
28.67	2.46006
28.68	2.49526
28.69	2.46894
28.7	2.42388
28.71	2.45644
28.72	2.42749
28.73	2.46006
28.74	2.4344
28.75	2.46434
28.76	2.4923
28.77	2.44131
28.78	2.45447
28.79	2.47289
28.8	2.49888
28.81	2.48408
28.82	2.46467
28.83	2.47421
28.84	2.47289
28.85	2.46763
28.86	2.50941
28.87	2.48638
28.88	2.45447
28.89	2.45809
28.9	2.46006
28.91	2.46072
28.92	2.47421
28.93	2.49756
28.94	2.4696
28.95	2.46171
28.96	2.46171
28.97	2.48079
28.98	2.47125
28.99	2.44296
29	2.47947
29.01	2.47355
29.02	2.45513
29.03	2.47289
29.04	2.46993
29.05	2.45513
29.06	2.48605
29.07	2.46993
29.08	2.47322
29.09	2.45447
29.1	2.46236
29.11	2.47059
29.12	2.45151
29.13	2.45842
29.14	2.46598
29.15	2.45217
29.16	2.46302
29.17	2.42124
29.18	2.4673
29.19	2.46664
29.2	2.45809
29.21	2.46796
29.22	2.47552
29.23	2.46236
29.24	2.45513
29.25	2.45776
29.26	2.47717
29.27	2.48802
29.28	2.44657
29.29	2.47783
29.3	2.49197
29.31	2.46401
29.32	2.47618
29.33	2.45052
29.34	2.44328
29.35	2.49065
29.36	2.47125
29.37	2.46763
29.38	2.4548
29.39	2.4923
29.4	2.44427
29.41	2.46697
29.42	2.4844
29.43	2.46533
29.44	2.45348
29.45	2.4923
29.46	2.46927
29.47	2.44954
29.48	2.45085
29.49	2.45973
29.5	2.46105
29.51	2.47355
29.52	2.45282
29.53	2.4469
29.54	2.45809
29.55	2.44394
29.56	2.48342
29.57	2.46861
29.58	2.44592
29.59	2.43868
29.6	2.45809
29.61	2.46467
29.62	2.45513
29.63	2.4423
29.64	2.43736
29.65	2.43802
29.66	2.44559
29.67	2.50381
29.68	2.47158
29.69	2.47256
29.7	2.46598
29.71	2.45118
29.72	2.48276
29.73	2.47552
29.74	2.44888
29.75	2.46533
29.76	2.47026
29.77	2.43736
29.78	2.47223
29.79	2.49065
29.8	2.47585
29.81	2.46072
29.82	2.45414
29.83	2.43605
29.84	2.45282
29.85	2.46368
29.86	2.47158
29.87	2.44756
29.88	2.48967
29.89	2.47651
29.9	2.45447
29.91	2.46302
29.92	2.45085
29.93	2.48276
29.94	2.47881
29.95	2.47881
29.96	2.465
29.97	2.43605
29.98	2.46631
29.99	2.45611
30	2.465
30.01	2.4571
30.02	2.45348
30.03	2.48473
30.04	2.44592
30.05	2.43769
30.06	2.49065
30.07	2.47881
30.08	2.46598
30.09	2.48901
30.1	2.46401
30.11	2.46598
30.12	2.48638
30.13	2.42815
30.14	2.47881
30.15	2.45677
30.16	2.46763
30.17	2.48144
30.18	2.47223
30.19	2.4719
30.2	2.48144
30.21	2.46434
30.22	2.45151
30.23	2.47421
30.24	2.47421
30.25	2.48276
30.26	2.4594
30.27	2.47026
30.28	2.49888
30.29	2.46927
30.3	2.47552
30.31	2.45381
30.32	2.47256
30.33	2.45381
30.34	2.47059
30.35	2.46796
30.36	2.45151
30.37	2.47125
30.38	2.47421
30.39	2.47783
30.4	2.45907
30.41	2.45184
30.42	2.44394
30.43	2.4571
30.44	2.45151
30.45	2.46467
30.46	2.47947
30.47	2.46039
30.48	2.48408
30.49	2.4946
30.5	2.47552
30.51	2.44263
30.52	2.42519
30.53	2.44098
30.54	2.46829
30.55	2.47947
30.56	2.47355
30.57	2.44789
30.58	2.45809
30.59	2.47092
30.6	2.48144
30.61	2.46631
30.62	2.44098
30.63	2.4673
30.64	2.45513
30.65	2.49427
30.66	2.49855
30.67	2.46368
30.68	2.48868
30.69	2.47881
30.7	2.46138
30.71	2.43342
30.72	2.47355
30.73	2.47815
30.74	2.45875
30.75	2.44394
30.76	2.46894
30.77	2.47486
30.78	2.49592
30.79	2.47421
30.8	2.46861
30.81	2.4571
30.82	2.44657
30.83	2.45973
30.84	2.4798
30.85	2.46006
30.86	2.47059
30.87	2.44131
30.88	2.44526
30.89	2.47881
30.9	2.47125
30.91	2.48967
30.92	2.48013
30.93	2.46236
30.94	2.48868
30.95	2.48144
30.96	2.47092
30.97	2.45875
30.98	2.4446
30.99	2.47158
31	2.41861
31.01	2.4571
31.02	2.49493
31.03	2.47618
31.04	2.48605
31.05	2.48473
31.06	2.45118
31.07	2.47519
31.08	2.48802
31.09	2.48144
31.1	2.43868
31.11	2.46335
31.12	2.50513
31.13	2.48013
31.14	2.45348
31.15	2.45118
31.16	2.46533
31.17	2.45907
31.18	2.44855
31.19	2.44888
31.2	2.44657
31.21	2.46598
31.22	2.47783
31.23	2.48309
31.24	2.46105
31.25	2.45217
31.26	2.47486
31.27	2.46796
31.28	2.45644
31.29	2.45184
31.3	2.43868
31.31	2.4469
31.32	2.46598
31.33	2.47125
31.34	2.46861
31.35	2.4844
31.36	2.4719
31.37	2.48079
31.38	2.46072
31.39	2.4469
31.4	2.46204
31.41	2.46204
31.42	2.44526
31.43	2.46796
31.44	2.45315
31.45	2.44954
31.46	2.45875
31.47	2.44855
31.48	2.46302
31.49	2.48375
31.5	2.49296
31.51	2.44921
31.52	2.43375
31.53	2.45907
31.54	2.46204
31.55	2.44625
31.56	2.45513
31.57	2.47717
31.58	2.46302
31.59	2.45776
31.6	2.45973
31.61	2.48408
31.62	2.46796
31.63	2.46401
31.64	2.44756
31.65	2.45315
31.66	2.47585
31.67	2.47717
31.68	2.45907
31.69	2.44855
31.7	2.45447
31.71	2.46039
31.72	2.43901
31.73	2.4446
31.74	2.46434
31.75	2.43572
31.76	2.43342
31.77	2.44427
31.78	2.47355
31.79	2.46927
31.8	2.45315
31.81	2.44954
31.82	2.46598
31.83	2.46204
31.84	2.46368
31.85	2.47059
31.86	2.47059
31.87	2.44855
31.88	2.4594
31.89	2.4696
31.9	2.47651
31.91	2.47092
31.92	2.45348
31.93	2.45644
31.94	2.47651
31.95	2.45809
31.96	2.45414
31.97	2.48375
31.98	2.45348
31.99	2.46829
32	2.47585
32.01	2.47651
32.02	2.4446
32.03	2.43539
32.04	2.45019
32.05	2.44657
32.06	2.44954
32.07	2.45907
32.08	2.4775
32.09	2.46368
32.1	2.48079
32.11	2.45875
32.12	2.45743
32.13	2.47651
32.14	2.44526
32.15	2.46171
32.16	2.48309
32.17	2.48112
32.18	2.46829
32.19	2.45151
32.2	2.47684
32.21	2.46138
32.22	2.50546
32.23	2.45973
32.24	2.47355
32.25	2.45644
32.26	2.43967
32.27	2.41894
32.28	2.43078
32.29	2.4594
32.3	2.45973
32.31	2.47815
32.32	2.48309
32.33	2.46335
32.34	2.47223
32.35	2.48769
32.36	2.47519
32.37	2.47158
32.38	2.44526
32.39	2.46565
32.4	2.48112
32.41	2.45579
32.42	2.46171
32.43	2.48079
32.44	2.46434
32.45	2.44493
32.46	2.48572
32.47	2.46664
32.48	2.46434
32.49	2.42947
32.5	2.49921
32.51	2.47519
32.52	2.49065
32.53	2.46467
32.54	2.47256
32.55	2.45052
32.56	2.47026
32.57	2.44098
32.58	2.46171
32.59	2.46105
32.6	2.45907
32.61	2.4719
32.62	2.47618
32.63	2.4594
32.64	2.45282
32.65	2.45381
32.66	2.47256
32.67	2.48704
32.68	2.45579
32.69	2.47125
32.7	2.49362
32.71	2.47355
32.72	2.41532
32.73	2.4446
32.74	2.48934
32.75	2.4798
32.76	2.4923
32.77	2.49263
32.78	2.48539
32.79	2.46006
32.8	2.46171
32.81	2.46368
32.82	2.47125
32.83	2.45743
32.84	2.4446
32.85	2.46171
32.86	2.46993
32.87	2.46171
32.88	2.46204
32.89	2.47289
32.9	2.47783
32.91	2.46171
32.92	2.49526
32.93	2.46993
32.94	2.45513
32.95	2.45907
32.96	2.48013
32.97	2.43243
32.98	2.46302
32.99	2.48473
33	2.45644
33.01	2.45381
33.02	2.44921
33.03	2.44756
33.04	2.50217
33.05	2.46302
33.06	2.45513
33.07	2.46664
33.08	2.48473
33.09	2.50283
33.1	2.47618
33.11	2.49987
33.12	2.48901
33.13	2.48835
33.14	2.50316
33.15	2.46039
33.16	2.46598
33.17	2.45085
33.18	2.45776
33.19	2.46664
33.2	2.47026
33.21	2.46236
33.22	2.45052
33.23	2.48967
33.24	2.44493
33.25	2.47125
33.26	2.46565
33.27	2.42881
33.28	2.46894
33.29	2.4844
33.3	2.45381
33.31	2.47881
33.32	2.44164
33.33	2.44164
33.34	2.43769
33.35	2.48506
33.36	2.48769
33.37	2.45085
33.38	2.46533
33.39	2.4469
33.4	2.45875
33.41	2.46533
33.42	2.45513
33.43	2.49098
33.44	2.46335
33.45	2.50085
33.46	2.4798
33.47	2.45085
33.48	2.4775
33.49	2.44065
33.5	2.4844
33.51	2.47651
33.52	2.45546
33.53	2.46565
33.54	2.47947
33.55	2.4525
33.56	2.47552
33.57	2.44888
33.58	2.46861
33.59	2.465
33.6	2.46467
33.61	2.46138
33.62	2.45315
33.63	2.43309
33.64	2.46335
33.65	2.47092
33.66	2.46105
33.67	2.45973
33.68	2.44263
33.69	2.46993
33.7	2.48802
33.71	2.46894
33.72	2.48934
33.73	2.46861
33.74	2.45973
33.75	2.44625
33.76	2.48835
33.77	2.45579
33.78	2.48473
33.79	2.45973
33.8	2.49625
33.81	2.45579
33.82	2.46138
33.83	2.46368
33.84	2.43934
33.85	2.45052
33.86	2.46401
33.87	2.46927
33.88	2.45842
33.89	2.47585
33.9	2.50085
33.91	2.47026
33.92	2.45644
33.93	2.43342
33.94	2.46072
33.95	2.47059
33.96	2.46927
33.97	2.48112
33.98	2.45875
33.99	2.44954
34	2.45776
34.01	2.45217
34.02	2.48177
34.03	2.48375
34.04	2.49625
34.05	2.48342
34.06	2.46105
34.07	2.46894
34.08	2.44559
34.09	2.4594
34.1	2.49394
34.11	2.49098
34.12	2.47322
34.13	2.47125
34.14	2.45907
34.15	2.44723
34.16	2.45381
34.17	2.46796
34.18	2.44855
34.19	2.45776
34.2	2.45513
34.21	2.45546
34.22	2.44954
34.23	2.47454
34.24	2.4821
34.25	2.43703
34.26	2.46006
34.27	2.465
34.28	2.44493
34.29	2.45447
34.3	2.45151
34.31	2.51335
34.32	2.44361
34.33	2.48309
34.34	2.46697
34.35	2.45118
34.36	2.46763
34.37	2.47651
34.38	2.4571
34.39	2.47092
34.4	2.45743
34.41	2.4673
34.42	2.46072
34.43	2.46368
34.44	2.43868
34.45	2.47881
34.46	2.49362
34.47	2.45579
34.48	2.43046
34.49	2.45743
34.5	2.47454
34.51	2.46763
34.52	2.45019
34.53	2.48473
34.54	2.48013
34.55	2.46236
34.56	2.43506
34.57	2.43802
34.58	2.44361
34.59	2.44263
34.6	2.46039
34.61	2.4571
34.62	2.45579
34.63	2.4525
34.64	2.4775
34.65	2.46171
34.66	2.45315
34.67	2.48868
34.68	2.47092
34.69	2.45414
34.7	2.4594
34.71	2.44
34.72	2.50381
34.73	2.49756
34.74	2.48671
34.75	2.47486
34.76	2.50085
34.77	2.47848
34.78	2.47256
34.79	2.4923
34.8	2.45743
34.81	2.44921
34.82	2.45842
34.83	2.45546
34.84	2.44888
34.85	2.43309
34.86	2.46171
34.87	2.47618
34.88	2.48046
34.89	2.47026
34.9	2.46138
34.91	2.46894
34.92	2.4775
34.93	2.46697
34.94	2.46829
34.95	2.4798
34.96	2.44789
34.97	2.4423
34.98	2.45973
34.99	2.47815
35	2.45809
35.01	2.45579
35.02	2.45644
35.03	2.42947
35.04	2.47388
35.05	2.47059
35.06	2.44526
35.07	2.46894
35.08	2.45381
35.09	2.45381
35.1	2.45052
35.11	2.44592
35.12	2.47618
35.13	2.49329
35.14	2.47783
35.15	2.47092
35.16	2.45743
35.17	2.49855
35.18	2.46467
35.19	2.4525
35.2	2.46993
35.21	2.45381
35.22	2.47388
35.23	2.46072
35.24	2.45907
35.25	2.49033
35.26	2.46993
35.27	2.46598
35.28	2.47848
35.29	2.47486
35.3	2.46993
35.31	2.45184
35.32	2.46434
35.33	2.46598
35.34	2.47289
35.35	2.46467
35.36	2.45973
35.37	2.45842
35.38	2.46894
35.39	2.46631
35.4	2.44296
35.41	2.46565
35.42	2.50908
35.43	2.51434
35.44	2.4821
35.45	2.48013
35.46	2.49
35.47	2.46467
35.48	2.46467
35.49	2.45513
35.5	2.45809
35.51	2.45875
35.52	2.47815
35.53	2.45513
35.54	2.45579
35.55	2.45381
35.56	2.46236
35.57	2.44065
35.58	2.46006
35.59	2.47355
35.6	2.44427
35.61	2.44986
35.62	2.45546
35.63	2.45743
35.64	2.45907
35.65	2.45546
35.66	2.47125
35.67	2.44526
35.68	2.45907
35.69	2.45217
35.7	2.44296
35.71	2.47454
35.72	2.44328
35.73	2.46434
35.74	2.45447
35.75	2.45875
35.76	2.45611
35.77	2.44032
35.78	2.45579
35.79	2.45809
35.8	2.44789
35.81	2.44657
35.82	2.41335
35.83	2.45809
35.84	2.47059
35.85	2.48473
35.86	2.47454
35.87	2.45085
35.88	2.44986
35.89	2.48408
35.9	2.46236
35.91	2.46763
35.92	2.47585
35.93	2.4594
35.94	2.46664
35.95	2.44855
35.96	2.46533
35.97	2.48079
35.98	2.46598
35.99	2.47486
36	2.47618
36.01	2.47815
36.02	2.45414
36.03	2.47256
36.04	2.4673
36.05	2.48375
36.06	2.46829
36.07	2.45776
36.08	2.41763
36.09	2.45513
36.1	2.47848
36.11	2.45809
36.12	2.44986
36.13	2.45381
36.14	2.46269
36.15	2.44657
36.16	2.44559
36.17	2.45414
36.18	2.46006
36.19	2.44131
36.2	2.44921
36.21	2.47881
36.22	2.46039
36.23	2.4673
36.24	2.46138
36.25	2.47223
36.26	2.47289
36.27	2.46993
36.28	2.49592
36.29	2.44394
36.3	2.43967
36.31	2.46598
36.32	2.47552
36.33	2.46401
36.34	2.47388
36.35	2.48177
36.36	2.48013
36.37	2.47519
36.38	2.47454
36.39	2.49427
36.4	2.46368
36.41	2.4673
36.42	2.47158
36.43	2.45381
36.44	2.4344
36.45	2.46763
36.46	2.45842
36.47	2.44888
36.48	2.4696
36.49	2.48079
36.5	2.45348
36.51	2.47454
36.52	2.45907
36.53	2.45052
36.54	2.48309
36.55	2.49427
36.56	2.46697
36.57	2.48112
36.58	2.47289
36.59	2.44789
36.6	2.4446
36.61	2.47421
36.62	2.47783
36.63	2.45842
36.64	2.4446
36.65	2.45907
36.66	2.44197
36.67	2.46697
36.68	2.47552
36.69	2.43769
36.7	2.4594
36.71	2.48079
36.72	2.46631
36.73	2.43342
36.74	2.45414
36.75	2.45348
36.76	2.48506
36.77	2.45151
36.78	2.44888
36.79	2.46335
36.8	2.50644
36.81	2.48309
36.82	2.48177
36.83	2.46006
36.84	2.45875
36.85	2.45381
36.86	2.44855
36.87	2.45118
36.88	2.4798
36.89	2.45809
36.9	2.44361
36.91	2.49394
36.92	2.45809
36.93	2.43342
36.94	2.45579
36.95	2.46039
36.96	2.48309
36.97	2.45907
36.98	2.46204
36.99	2.46072
37	2.47783
37.01	2.44526
37.02	2.45611
37.03	2.46829
37.04	2.43506
37.05	2.44098
37.06	2.48605
37.07	2.47881
37.08	2.4548
37.09	2.46072
37.1	2.44328
37.11	2.46434
37.12	2.46993
37.13	2.45184
37.14	2.4719
37.15	2.48144
37.16	2.47158
37.17	2.45644
37.18	2.4844
37.19	2.47256
37.2	2.46697
37.21	2.46829
37.22	2.48079
37.23	2.45907
37.24	2.45875
37.25	2.46105
37.26	2.46861
37.27	2.45151
37.28	2.45809
37.29	2.45151
37.3	2.4673
37.31	2.45217
37.32	2.49033
37.33	2.47914
37.34	2.47158
37.35	2.4594
37.36	2.49
37.37	2.47125
37.38	2.46829
37.39	2.46072
37.4	2.47158
37.41	2.44098
37.42	2.46927
37.43	2.47651
37.44	2.49559
37.45	2.45875
37.46	2.49723
37.47	2.46236
37.48	2.44032
37.49	2.47026
37.5	2.48375
37.51	2.4775
37.52	2.4719
37.53	2.4673
37.54	2.46204
37.55	2.4696
37.56	2.47289
37.57	2.48342
37.58	2.45776
37.59	2.47454
37.6	2.44526
37.61	2.45644
37.62	2.46302
37.63	2.47947
37.64	2.48408
37.65	2.47223
37.66	2.4594
37.67	2.49526
37.68	2.50447
37.69	2.47552
37.7	2.48638
37.71	2.48309
37.72	2.46138
37.73	2.4548
37.74	2.46796
37.75	2.46236
37.76	2.48473
37.77	2.4821
37.78	2.45217
37.79	2.41763
37.8	2.465
37.81	2.47322
37.82	2.46533
37.83	2.43901
37.84	2.45381
37.85	2.44921
37.86	2.44756
37.87	2.44065
37.88	2.45052
37.89	2.46697
37.9	2.45151
37.91	2.44723
37.92	2.46993
37.93	2.47815
37.94	2.46138
37.95	2.46697
37.96	2.46894
37.97	2.48112
37.98	2.45743
37.99	2.43473
38	2.42322
38.01	2.48276
38.02	2.47848
38.03	2.47289
38.04	2.48506
38.05	2.49
38.06	2.46894
38.07	2.46467
38.08	2.47125
38.09	2.45842
38.1	2.45546
38.11	2.46565
38.12	2.47486
38.13	2.46368
38.14	2.47092
38.15	2.46894
38.16	2.4719
38.17	2.47289
38.18	2.4469
38.19	2.46894
38.2	2.47783
38.21	2.46927
38.22	2.46927
38.23	2.44164
38.24	2.43934
38.25	2.47486
38.26	2.46664
38.27	2.48802
38.28	2.47585
38.29	2.4775
38.3	2.48473
38.31	2.45579
38.32	2.45447
38.33	2.48539
38.34	2.48375
38.35	2.45644
38.36	2.47486
38.37	2.47947
38.38	2.44361
38.39	2.48177
38.4	2.46072
38.41	2.4696
38.42	2.46006
38.43	2.44855
38.44	2.43671
38.45	2.43835
38.46	2.4696
38.47	2.46105
38.48	2.46763
38.49	2.47618
38.5	2.45381
38.51	2.43868
38.52	2.47585
38.53	2.48013
38.54	2.48243
38.55	2.47486
38.56	2.46072
38.57	2.44855
38.58	2.45743
38.59	2.46927
38.6	2.45085
38.61	2.44657
38.62	2.45842
38.63	2.47486
38.64	2.46467
38.65	2.46631
38.66	2.44954
38.67	2.47552
38.68	2.47454
38.69	2.4469
38.7	2.44657
38.71	2.47092
38.72	2.47618
38.73	2.45776
38.74	2.49789
38.75	2.47289
38.76	2.45348
38.77	2.44361
38.78	2.45546
38.79	2.4594
38.8	2.43769
38.81	2.43671
38.82	2.47059
38.83	2.46993
38.84	2.46006
38.85	2.46861
38.86	2.47158
38.87	2.45513
38.88	2.47552
38.89	2.46204
38.9	2.45282
38.91	2.44131
38.92	2.45776
38.93	2.46796
38.94	2.46763
38.95	2.48342
38.96	2.46631
38.97	2.4798
38.98	2.46927
38.99	2.44625
39	2.48802
39.01	2.44592
39.02	2.44197
39.03	2.47552
39.04	2.47026
39.05	2.44098
39.06	2.49197
39.07	2.47026
39.08	2.45052
39.09	2.44427
39.1	2.4798
39.11	2.46631
39.12	2.46236
39.13	2.45809
39.14	2.46796
39.15	2.44822
39.16	2.44296
39.17	2.46533
39.18	2.48671
39.19	2.48243
39.2	2.48473
39.21	2.48506
39.22	2.47158
39.23	2.47322
39.24	2.49427
39.25	2.47421
39.26	2.41796
39.27	2.46006
39.28	2.46796
39.29	2.48408
39.3	2.46006
39.31	2.48967
39.32	2.4525
39.33	2.43572
39.34	2.4525
39.35	2.47618
39.36	2.46467
39.37	2.45184
39.38	2.44427
39.39	2.46039
39.4	2.46335
39.41	2.44427
39.42	2.4594
39.43	2.46138
39.44	2.47651
39.45	2.45875
39.46	2.48243
39.47	2.48013
39.48	2.47914
39.49	2.47158
39.5	2.50612
39.51	2.46664
39.52	2.43309
39.53	2.50973
39.54	2.47618
39.55	2.48309
39.56	2.46039
39.57	2.46269
39.58	2.45546
39.59	2.45644
39.6	2.48506
39.61	2.4696
39.62	2.47651
39.63	2.44723
39.64	2.4423
39.65	2.42881
39.66	2.4594
39.67	2.4525
39.68	2.46631
39.69	2.44592
39.7	2.45743
39.71	2.46269
39.72	2.46072
39.73	2.44164
39.74	2.45611
39.75	2.47717
39.76	2.46204
39.77	2.46335
39.78	2.43868
39.79	2.42815
39.8	2.48868
39.81	2.46269
39.82	2.46796
39.83	2.48473
39.84	2.46927
39.85	2.42453
39.86	2.42256
39.87	2.46335
39.88	2.47421
39.89	2.49921
39.9	2.48276
39.91	2.49131
39.92	2.50644
39.93	2.48835
39.94	2.4696
39.95	2.47519
39.96	2.47158
39.97	2.48276
39.98	2.45546
39.99	2.49
40	2.47454
40.01	2.45611
40.02	2.47486
40.03	2.45644
40.04	2.44328
40.05	2.46533
40.06	2.45743
40.07	2.45644
40.08	2.47355
40.09	2.44493
40.1	2.44065
40.11	2.44756
40.12	2.46006
40.13	2.47486
40.14	2.45907
40.15	2.45118
40.16	2.46861
40.17	2.4423
40.18	2.46664
40.19	2.4446
40.2	2.4719
40.21	2.50217
40.22	2.49033
40.23	2.46861
40.24	2.46335
40.25	2.465
40.26	2.44394
40.27	2.46039
40.28	2.45513
40.29	2.47059
40.3	2.45907
40.31	2.44131
40.32	2.42717
40.33	2.43736
40.34	2.46467
40.35	2.46829
40.36	2.46763
40.37	2.45611
40.38	2.4469
40.39	2.45842
40.4	2.4571
40.41	2.49921
40.42	2.45513
40.43	2.45381
40.44	2.47388
40.45	2.44592
40.46	2.43901
40.47	2.46796
40.48	2.50217
40.49	2.46467
40.5	2.40874
40.51	2.44986
40.52	2.45019
40.53	2.43572
40.54	2.44
40.55	2.46401
40.56	2.4844
40.57	2.48868
40.58	2.44789
40.59	2.44197
40.6	2.44723
40.61	2.45644
40.62	2.47486
40.63	2.47815
40.64	2.46302
40.65	2.46829
40.66	2.4719
40.67	2.45118
40.68	2.47355
40.69	2.46467
40.7	2.4344
40.71	2.45282
40.72	2.44592
40.73	2.45118
40.74	2.46927
40.75	2.46236
40.76	2.49164
40.77	2.46664
40.78	2.46927
40.79	2.4719
40.8	2.46467
40.81	2.43868
40.82	2.4219
40.83	2.46105
40.84	2.4594
40.85	2.4446
40.86	2.46763
40.87	2.4594
40.88	2.47158
40.89	2.4696
40.9	2.47684
40.91	2.47289
40.92	2.48539
40.93	2.49855
40.94	2.46598
40.95	2.47125
40.96	2.44921
40.97	2.46927
40.98	2.45315
40.99	2.41828
41	2.42684
41.01	2.45842
41.02	2.44625
41.03	2.44296
41.04	2.45513
41.05	2.43309
41.06	2.47947
41.07	2.48769
41.08	2.46171
41.09	2.48177
41.1	2.45151
41.11	2.40677
41.12	2.4469
41.13	2.42947
41.14	2.46368
41.15	2.49954
41.16	2.47519
41.17	2.45611
41.18	2.46894
41.19	2.47454
41.2	2.46927
41.21	2.48276
41.22	2.46171
41.23	2.48144
41.24	2.45579
41.25	2.48375
41.26	2.48539
41.27	2.44164
41.28	2.46434
41.29	2.45579
41.3	2.46697
41.31	2.47322
41.32	2.42124
41.33	2.45085
41.34	2.44921
41.35	2.43342
41.36	2.4344
41.37	2.42486
41.38	2.46204
41.39	2.45611
41.4	2.45809
41.41	2.45282
41.42	2.4844
41.43	2.45151
41.44	2.46171
41.45	2.46006
41.46	2.44427
41.47	2.44888
41.48	2.46171
41.49	2.45875
41.5	2.47223
41.51	2.49131
41.52	2.46993
41.53	2.46894
41.54	2.45611
41.55	2.45315
41.56	2.47256
41.57	2.46533
41.58	2.45677
41.59	2.47519
41.6	2.465
41.61	2.4548
41.62	2.47519
41.63	2.46204
41.64	2.46269
41.65	2.44855
41.66	2.45973
41.67	2.44131
41.68	2.46236
41.69	2.46171
41.7	2.47158
41.71	2.45875
41.72	2.44098
41.73	2.45973
41.74	2.44592
41.75	2.4321
41.76	2.46401
41.77	2.46236
41.78	2.44756
41.79	2.44625
41.8	2.45513
41.81	2.46335
41.82	2.47717
41.83	2.46565
41.84	2.48539
41.85	2.48046
41.86	2.46533
41.87	2.46171
41.88	2.48737
41.89	2.44427
41.9	2.46302
41.91	2.47717
41.92	2.45907
41.93	2.43769
41.94	2.43276
41.95	2.46993
41.96	2.46368
41.97	2.46138
41.98	2.46533
41.99	2.48769
42	2.45579
42.01	2.4548
42.02	2.47026
42.03	2.48112
42.04	2.47717
42.05	2.43868
42.06	2.45414
42.07	2.4844
42.08	2.49362
42.09	2.49789
42.1	2.46335
42.11	2.47158
42.12	2.48769
42.13	2.48934
42.14	2.46861
42.15	2.44361
42.16	2.47848
42.17	2.46533
42.18	2.45579
42.19	2.46993
42.2	2.46829
42.21	2.45513
42.22	2.44592
42.23	2.46171
42.24	2.46302
42.25	2.4844
42.26	2.49131
42.27	2.49
42.28	2.47519
42.29	2.46039
42.3	2.47914
42.31	2.45184
42.32	2.43078
42.33	2.4594
42.34	2.46697
42.35	2.47388
42.36	2.46565
42.37	2.47486
42.38	2.47256
42.39	2.45842
42.4	2.4696
42.41	2.45315
42.42	2.45875
42.43	2.48112
42.44	2.47914
42.45	2.45611
42.46	2.44855
42.47	2.45052
42.48	2.46171
42.49	2.44427
42.5	2.45052
42.51	2.48342
42.52	2.45513
42.53	2.46565
42.54	2.47881
42.55	2.45776
42.56	2.45546
42.57	2.47717
42.58	2.46894
42.59	2.47388
42.6	2.46894
42.61	2.48144
42.62	2.46697
42.63	2.44328
42.64	2.4673
42.65	2.45644
42.66	2.47421
42.67	2.47552
42.68	2.45809
42.69	2.46401
42.7	2.46796
42.71	2.46796
42.72	2.46927
42.73	2.47355
42.74	2.46796
42.75	2.47783
42.76	2.46763
42.77	2.49263
42.78	2.47322
42.79	2.4775
42.8	2.47059
42.81	2.46072
42.82	2.45348
42.83	2.48177
42.84	2.47322
42.85	2.47223
42.86	2.45118
42.87	2.48079
42.88	2.47585
42.89	2.49197
42.9	2.4821
42.91	2.48375
42.92	2.46302
42.93	2.46927
42.94	2.46401
42.95	2.47815
42.96	2.46631
42.97	2.47717
42.98	2.49625
42.99	2.46368
43	2.46434
43.01	2.46269
43.02	2.46894
43.03	2.48901
43.04	2.47815
43.05	2.46039
43.06	2.43506
43.07	2.44164
43.08	2.48605
43.09	2.44986
43.1	2.47092
43.11	2.45677
43.12	2.48144
43.13	2.49559
43.14	2.46105
43.15	2.46072
43.16	2.47684
43.17	2.49691
43.18	2.48473
43.19	2.4719
43.2	2.48572
43.21	2.50085
43.22	2.49394
43.23	2.49493
43.24	2.47552
43.25	2.46236
43.26	2.44888
43.27	2.46204
43.28	2.47618
43.29	2.47783
43.3	2.46335
43.31	2.48408
43.32	2.4696
43.33	2.45085
43.34	2.47421
43.35	2.49164
43.36	2.45809
43.37	2.4423
43.38	2.48046
43.39	2.47552
43.4	2.45184
43.41	2.43605
43.42	2.46302
43.43	2.47454
43.44	2.47421
43.45	2.4719
43.46	2.48144
43.47	2.47684
43.48	2.46006
43.49	2.43473
43.5	2.44263
43.51	2.46335
43.52	2.46236
43.53	2.47552
43.54	2.46335
43.55	2.47223
43.56	2.47125
43.57	2.47717
43.58	2.48868
43.59	2.49131
43.6	2.46368
43.61	2.48473
43.62	2.47783
43.63	2.46302
43.64	2.47651
43.65	2.49625
43.66	2.48802
43.67	2.48473
43.68	2.46039
43.69	2.46894
43.7	2.4719
43.71	2.46138
43.72	2.47519
43.73	2.43539
43.74	2.48112
43.75	2.4844
43.76	2.45579
43.77	2.44986
43.78	2.49954
43.79	2.50414
43.8	2.48605
43.81	2.46565
43.82	2.46467
43.83	2.47947
43.84	2.47914
43.85	2.50513
43.86	2.45348
43.87	2.4446
43.88	2.46533
43.89	2.48144
43.9	2.4821
43.91	2.48408
43.92	2.44822
43.93	2.49263
43.94	2.48112
43.95	2.46039
43.96	2.46401
43.97	2.4844
43.98	2.44427
43.99	2.46171
44	2.46993
44.01	2.48506
44.02	2.48079
44.03	2.47783
44.04	2.47421
44.05	2.45546
44.06	2.47717
44.07	2.4798
44.08	2.48046
44.09	2.47256
44.1	2.46829
44.11	2.48539
44.12	2.4798
44.13	2.47815
44.14	2.48079
44.15	2.46105
44.16	2.46993
44.17	2.4321
44.18	2.4298
44.19	2.46105
44.2	2.49164
44.21	2.46039
44.22	2.4571
44.23	2.44559
44.24	2.49625
44.25	2.47848
44.26	2.45414
44.27	2.45973
44.28	2.43572
44.29	2.48243
44.3	2.49164
44.31	2.46565
44.32	2.4446
44.33	2.43407
44.34	2.46631
44.35	2.4525
44.36	2.43243
44.37	2.43078
44.38	2.45875
44.39	2.4446
44.4	2.44493
44.41	2.47717
44.42	2.47388
44.43	2.44592
44.44	2.47651
44.45	2.46598
44.46	2.46993
44.47	2.46072
44.48	2.42519
44.49	2.45513
44.5	2.46467
44.51	2.46072
44.52	2.46171
44.53	2.48079
44.54	2.48079
44.55	2.43967
44.56	2.45842
44.57	2.46138
44.58	2.45907
44.59	2.47125
44.6	2.45151
44.61	2.44921
44.62	2.49065
44.63	2.46697
44.64	2.44164
44.65	2.45414
44.66	2.45579
44.67	2.45743
44.68	2.44296
44.69	2.44164
44.7	2.45052
44.71	2.4548
44.72	2.50908
44.73	2.49164
44.74	2.43934
44.75	2.44098
44.76	2.43506
44.77	2.48835
44.78	2.48144
44.79	2.47684
44.8	2.45151
44.81	2.45052
44.82	2.47256
44.83	2.46829
44.84	2.47914
44.85	2.47125
44.86	2.46401
44.87	2.48704
44.88	2.44986
44.89	2.45513
44.9	2.46138
44.91	2.44263
44.92	2.46697
44.93	2.47848
44.94	2.4571
44.95	2.4673
44.96	2.48309
44.97	2.45184
44.98	2.47322
44.99	2.45875
45	2.48638
45.01	2.47585
45.02	2.47552
45.03	2.48769
45.04	2.50184
45.05	2.50743
45.06	2.4798
45.07	2.46434
45.08	2.47552
45.09	2.45447
45.1	2.44921
45.11	2.46927
45.12	2.48013
45.13	2.49329
45.14	2.46763
45.15	2.46105
45.16	2.46138
45.17	2.45019
45.18	2.47651
45.19	2.45907
45.2	2.44921
45.21	2.45677
45.22	2.46993
45.23	2.44756
45.24	2.45611
45.25	2.46861
45.26	2.45085
45.27	2.47486
45.28	2.46171
45.29	2.45776
45.3	2.50283
45.31	2.48671
45.32	2.46796
45.33	2.46993
45.34	2.45973
45.35	2.49888
45.36	2.47289
45.37	2.46072
45.38	2.46565
45.39	2.45907
45.4	2.46664
45.41	2.46302
45.42	2.45151
45.43	2.46894
45.44	2.44723
45.45	2.46631
45.46	2.44921
45.47	2.46598
45.48	2.46204
45.49	2.47158
45.5	2.46105
45.51	2.46467
45.52	2.46039
45.53	2.46006
45.54	2.48506
45.55	2.50348
45.56	2.48276
45.57	2.45085
45.58	2.4775
45.59	2.47158
45.6	2.46039
45.61	2.47158
45.62	2.47585
45.63	2.45973
45.64	2.45907
45.65	2.46006
45.66	2.46993
45.67	2.47552
45.68	2.4571
45.69	2.47092
45.7	2.46039
45.71	2.46006
45.72	2.44657
45.73	2.45611
45.74	2.4525
45.75	2.45513
45.76	2.47454
45.77	2.50579
45.78	2.45217
45.79	2.46467
45.8	2.46829
45.81	2.47026
45.82	2.46368
45.83	2.48079
45.84	2.45546
45.85	2.4525
45.86	2.48013
45.87	2.46302
45.88	2.45282
45.89	2.45513
45.9	2.44756
45.91	2.46763
45.92	2.47355
45.93	2.45611
45.94	2.45579
45.95	2.4423
45.96	2.47388
45.97	2.47355
45.98	2.49329
45.99	2.47914
46	2.45184
46.01	2.46763
46.02	2.45546
46.03	2.44921
46.04	2.45381
46.05	2.47322
46.06	2.44888
46.07	2.43276
46.08	2.46138
46.09	2.45315
46.1	2.48901
46.11	2.46138
46.12	2.45381
46.13	2.45348
46.14	2.45085
46.15	2.49526
46.16	2.4719
46.17	2.48079
46.18	2.48375
46.19	2.43506
46.2	2.44921
46.21	2.47947
46.22	2.45644
46.23	2.45282
46.24	2.44657
46.25	2.4525
46.26	2.45546
46.27	2.46105
46.28	2.46335
46.29	2.42519
46.3	2.42947
46.31	2.45447
46.32	2.4798
46.33	2.45348
46.34	2.47388
46.35	2.46927
46.36	2.46664
46.37	2.4696
46.38	2.43736
46.39	2.44921
46.4	2.45447
46.41	2.47289
46.42	2.46533
46.43	2.45677
46.44	2.49263
46.45	2.45546
46.46	2.46171
46.47	2.45644
46.48	2.43046
46.49	2.47947
46.5	2.45743
46.51	2.46697
46.52	2.45644
46.53	2.45315
46.54	2.45052
46.55	2.46335
46.56	2.46763
46.57	2.45184
46.58	2.43934
46.59	2.45348
46.6	2.48309
46.61	2.44855
46.62	2.44625
46.63	2.44855
46.64	2.49131
46.65	2.50546
46.66	2.47223
46.67	2.47618
46.68	2.45315
46.69	2.45973
46.7	2.45579
46.71	2.46204
46.72	2.44822
46.73	2.48309
46.74	2.46598
46.75	2.45579
46.76	2.42815
46.77	2.43868
46.78	2.45677
46.79	2.44855
46.8	2.45579
46.81	2.46105
46.82	2.4594
46.83	2.46171
46.84	2.43309
46.85	2.44427
46.86	2.45085
46.87	2.4719
46.88	2.42717
46.89	2.46631
46.9	2.46763
46.91	2.48243
46.92	2.47125
46.93	2.48737
46.94	2.48473
46.95	2.47486
46.96	2.4321
46.97	2.43144
46.98	2.4423
46.99	2.45579
47	2.48408
47.01	2.46697
47.02	2.44263
47.03	2.44657
47.04	2.45513
47.05	2.42618
47.06	2.43539
47.07	2.46796
47.08	2.47223
47.09	2.47486
47.1	2.47486
47.11	2.47158
47.12	2.43375
47.13	2.46631
47.14	2.46335
47.15	2.45217
47.16	2.45513
47.17	2.46467
47.18	2.44032
47.19	2.44394
47.2	2.46138
47.21	2.45579
47.22	2.44164
47.23	2.45085
47.24	2.42421
47.25	2.47519
47.26	2.47158
47.27	2.46796
47.28	2.46533
47.29	2.46993
47.3	2.45381
47.31	2.48243
47.32	2.45973
47.33	2.44855
47.34	2.45348
47.35	2.44657
47.36	2.46039
47.37	2.46105
47.38	2.45743
47.39	2.47585
47.4	2.4571
47.41	2.43835
47.42	2.47815
47.43	2.50283
47.44	2.46269
47.45	2.4423
47.46	2.44822
47.47	2.46006
47.48	2.47552
47.49	2.4594
47.5	2.42223
47.51	2.46138
47.52	2.45644
47.53	2.44723
47.54	2.4423
47.55	2.45546
47.56	2.48112
47.57	2.49131
47.58	2.44263
47.59	2.44822
47.6	2.43967
47.61	2.46894
47.62	2.44361
47.63	2.44723
47.64	2.45644
47.65	2.43736
47.66	2.45513
47.67	2.45907
47.68	2.47519
47.69	2.46039
47.7	2.41927
47.71	2.44921
47.72	2.44822
47.73	2.4696
47.74	2.48605
47.75	2.44789
47.76	2.44361
47.77	2.47486
47.78	2.44822
47.79	2.46829
47.8	2.46171
47.81	2.45282
47.82	2.43375
47.83	2.4696
47.84	2.45907
47.85	2.48046
47.86	2.48868
47.87	2.44197
47.88	2.46434
47.89	2.45282
47.9	2.46533
47.91	2.46467
47.92	2.45315
47.93	2.43177
47.94	2.44888
47.95	2.45217
47.96	2.46006
47.97	2.44756
47.98	2.44723
47.99	2.44526
48	2.45447
48.01	2.45348
48.02	2.47289
48.03	2.46171
48.04	2.4594
48.05	2.46302
48.06	2.46467
48.07	2.50414
48.08	2.46598
48.09	2.43868
48.1	2.49987
48.11	2.48704
48.12	2.47026
48.13	2.46368
48.14	2.45677
48.15	2.47158
48.16	2.4719
48.17	2.45447
48.18	2.47848
48.19	2.46236
48.2	2.4673
48.21	2.47355
48.22	2.45282
48.23	2.45348
48.24	2.44789
48.25	2.49197
48.26	2.45282
48.27	2.45282
48.28	2.47388
48.29	2.47618
48.3	2.50085
48.31	2.46796
48.32	2.44822
48.33	2.44361
48.34	2.4548
48.35	2.45644
48.36	2.44328
48.37	2.46171
48.38	2.48309
48.39	2.47815
48.4	2.48638
48.41	2.49296
48.42	2.4844
48.43	2.45776
48.44	2.46368
48.45	2.46368
48.46	2.44526
48.47	2.46039
48.48	2.46565
48.49	2.49098
48.5	2.47914
48.51	2.43868
48.52	2.44
48.53	2.45579
48.54	2.48704
48.55	2.47618
48.56	2.43375
48.57	2.44592
48.58	2.42157
48.59	2.44
48.6	2.46138
48.61	2.46467
48.62	2.46171
48.63	2.43572
48.64	2.44756
48.65	2.46368
48.66	2.49789
48.67	2.44986
48.68	2.48638
48.69	2.4525
48.7	2.44
48.71	2.45447
48.72	2.45052
48.73	2.4923
48.74	2.49921
48.75	2.46861
48.76	2.48671
48.77	2.47256
48.78	2.4719
48.79	2.45743
48.8	2.43769
48.81	2.43703
48.82	2.47848
48.83	2.4548
48.84	2.45052
48.85	2.45677
48.86	2.44657
48.87	2.47388
48.88	2.44756
48.89	2.46335
48.9	2.4571
48.91	2.47947
48.92	2.4775
48.93	2.44427
48.94	2.44657
48.95	2.45118
48.96	2.43835
48.97	2.43671
48.98	2.44197
48.99	2.45973
49	2.47223
49.01	2.48342
49.02	2.44954
49.03	2.44526
49.04	2.45842
49.05	2.45776
49.06	2.46204
49.07	2.4775
49.08	2.45907
49.09	2.45151
49.1	2.43375
49.11	2.45973
49.12	2.45348
49.13	2.4423
49.14	2.47059
49.15	2.4844
49.16	2.48638
49.17	2.46105
49.18	2.48802
49.19	2.46006
49.2	2.46434
49.21	2.47421
49.22	2.47125
49.23	2.45019
49.24	2.42157
49.25	2.44361
49.26	2.45348
49.27	2.46039
49.28	2.43177
49.29	2.45677
49.3	2.45151
49.31	2.48013
49.32	2.45809
49.33	2.48177
49.34	2.45776
49.35	2.44723
49.36	2.44328
49.37	2.45579
49.38	2.42223
49.39	2.44855
49.4	2.43967
49.41	2.47618
49.42	2.4673
49.43	2.45315
49.44	2.46039
49.45	2.46072
49.46	2.49
49.47	2.4594
49.48	2.47059
49.49	2.43802
49.5	2.44361
49.51	2.45447
49.52	2.46664
49.53	2.48375
49.54	2.49197
49.55	2.47158
49.56	2.45776
49.57	2.45579
49.58	2.45414
49.59	2.4719
49.6	2.45842
49.61	2.48013
49.62	2.47125
49.63	2.47322
49.64	2.4696
49.65	2.44197
49.66	2.44954
49.67	2.47322
49.68	2.46664
49.69	2.45348
49.7	2.46105
49.71	2.48473
49.72	2.47289
49.73	2.45677
49.74	2.45085
49.75	2.47223
49.76	2.44263
49.77	2.4548
49.78	2.47059
49.79	2.46894
49.8	2.45776
49.81	2.43473
49.82	2.4219
49.83	2.41894
49.84	2.46269
49.85	2.4571
49.86	2.45282
49.87	2.47059
49.88	2.46236
49.89	2.44888
49.9	2.46072
49.91	2.46533
49.92	2.45184
49.93	2.45644
49.94	2.46072
49.95	2.4321
49.96	2.44
49.97	2.44822
49.98	2.47618
49.99	2.46796
50	2.48737
