"BIO-KINE ASCII FILE"
"_COMMENT"	"MOS-500 Spectrometer"
"_COMMENT"	"Kinetics measurement"
"_COMMENT"	"Y Unit : Volt,  X Unit : s"
"_COMMENT"	"Excitation wavelength : 380 nm"
"_COMMENT"	"Fentes bandwidth =  1 nm"
"_COMMENT"	"HV= 700V"
"_COMMENT"	"Timebase  1 =  .01 s   3001 pts"
"_SFM"	"SFM-400 /S  Advanced mode"
"_SFM"	"Ratio : S1: 2.5, S2: 0, S3: 0, S4: 1"
"_SFM"	"Content : S1: , S2: , S3: , S4:"
"_SFM"	"Concentration : S1: , S2: , S3: , S4:"
"_SFM"	"Total volume : 209 µl  Flow : 3.5 mL/s"
"_SFM"	"Acquisition start :  10 ms before stop"
"_SFM"	"cuve=FC-15, s1=10 ml , s2=10 ml , s3=10 ml , s4=1.9 ml"
"_UNITX"	"s"
"_UNITY"	"Volt"
"_DELTAX"	0
"_DATA"
1e-300	7.97601
0.01	8.50366
0.02	8.70366
0.03	8.74248
0.04	8.75432
0.05	8.7563
0.06	8.75268
0.07	8.76057
0.08	8.76781
0.09	8.75564
0.1	8.77669
0.11	8.77011
0.12	8.77406
0.13	8.77439
0.14	8.77439
0.15	8.75268
0.16	8.75958
0.17	8.77669
0.18	8.7507
0.19	8.75926
0.2	8.74051
0.21	8.74215
0.22	8.74478
0.23	8.74379
0.24	8.74018
0.25	8.73458
0.26	8.73458
0.27	8.73294
0.28	8.72504
0.29	8.7109
0.3	8.71452
0.31	8.70991
0.32	8.69248
0.33	8.69412
0.34	8.70564
0.35	8.68623
0.36	8.67833
0.37	8.68031
0.38	8.66649
0.39	8.66419
0.4	8.68031
0.41	8.66386
0.42	8.65498
0.43	8.63392
0.44	8.64215
0.45	8.63491
0.46	8.62274
0.47	8.61682
0.48	8.62208
0.49	8.61616
0.5	8.60991
0.51	8.59412
0.52	8.59938
0.53	8.59379
0.54	8.58294
0.55	8.58458
0.56	8.56419
0.57	8.5655
0.58	8.56353
0.59	8.55201
0.6	8.55333
0.61	8.54247
0.62	8.54807
0.63	8.5405
0.64	8.51945
0.65	8.52405
0.66	8.51484
0.67	8.50037
0.68	8.50103
0.69	8.49214
0.7	8.49182
0.71	8.47734
0.72	8.47668
0.73	8.46057
0.74	8.45103
0.75	8.44938
0.76	8.43754
0.77	8.43063
0.78	8.42866
0.79	8.43096
0.8	8.42767
0.81	8.4132
0.82	8.403
0.83	8.40366
0.84	8.38951
0.85	8.39412
0.86	8.37537
0.87	8.378
0.88	8.36221
0.89	8.35859
0.9	8.35004
0.91	8.35958
0.92	8.34148
0.93	8.3303
0.94	8.32536
0.95	8.33721
0.96	8.32142
0.97	8.30332
0.98	8.31319
0.99	8.29609
1	8.29082
1.01	8.28688
1.02	8.27175
1.03	8.24971
1.04	8.24115
1.05	8.25201
1.06	8.26023
1.07	8.23918
1.08	8.23523
1.09	8.23819
1.1	8.23885
1.11	8.22043
1.12	8.20365
1.13	8.20201
1.14	8.2053
1.15	8.18523
1.16	8.1803
1.17	8.17437
1.18	8.1803
1.19	8.17207
1.2	8.15891
1.21	8.14872
1.22	8.13227
1.23	8.13753
1.24	8.11977
1.25	8.12733
1.26	8.11418
1.27	8.1145
1.28	8.11615
1.29	8.10529
1.3	8.10069
1.31	8.09773
1.32	8.08852
1.33	8.09279
1.34	8.06812
1.35	8.06286
1.36	8.05398
1.37	8.06121
1.38	8.0474
1.39	8.0451
1.4	8.02963
1.41	8.0224
1.42	8.02931
1.43	8.00891
1.44	8.00759
1.45	8.00628
1.46	7.98687
1.47	7.97174
1.48	7.9724
1.49	7.9622
1.5	7.96845
1.51	7.96351
1.52	7.95233
1.53	7.95562
1.54	7.93259
1.55	7.93292
1.56	7.92766
1.57	7.90825
1.58	7.90726
1.59	7.88621
1.6	7.88358
1.61	7.88621
1.62	7.87963
1.63	7.87535
1.64	7.88095
1.65	7.87075
1.66	7.85266
1.67	7.84805
1.68	7.83489
1.69	7.82404
1.7	7.8293
1.71	7.82831
1.72	7.81713
1.73	7.81219
1.74	7.81252
1.75	7.79377
1.76	7.78555
1.77	7.76746
1.78	7.77634
1.79	7.76154
1.8	7.75364
1.81	7.75627
1.82	7.73357
1.83	7.73884
1.84	7.73686
1.85	7.71186
1.86	7.7168
1.87	7.71778
1.88	7.71219
1.89	7.69871
1.9	7.68522
1.91	7.67667
1.92	7.69311
1.93	7.66088
1.94	7.6668
1.95	7.66877
1.96	7.66153
1.97	7.64969
1.98	7.65134
1.99	7.64147
2	7.62962
2.01	7.62995
2.02	7.62699
2.03	7.6112
2.04	7.57995
2.05	7.58522
2.06	7.59147
2.07	7.59179
2.08	7.57469
2.09	7.57272
2.1	7.57173
2.11	7.57403
2.12	7.55791
2.13	7.55495
2.14	7.54377
2.15	7.5316
2.16	7.51942
2.17	7.5135
2.18	7.49903
2.19	7.51844
2.2	7.49508
2.21	7.501
2.22	7.49344
2.23	7.48159
2.24	7.47304
2.25	7.4635
2.26	7.45791
2.27	7.44903
2.28	7.44574
2.29	7.43719
2.3	7.43587
2.31	7.42732
2.32	7.41317
2.33	7.41449
2.34	7.41876
2.35	7.40561
2.36	7.40001
2.37	7.39508
2.38	7.3783
2.39	7.3737
2.4	7.36482
2.41	7.36087
2.42	7.35692
2.43	7.35166
2.44	7.3362
2.45	7.3431
2.46	7.32534
2.47	7.32797
2.48	7.32139
2.49	7.30988
2.5	7.32074
2.51	7.30264
2.52	7.28027
2.53	7.2987
2.54	7.28685
2.55	7.28455
2.56	7.26942
2.57	7.25133
2.58	7.23422
2.59	7.24244
2.6	7.24606
2.61	7.23817
2.62	7.23356
2.63	7.22073
2.64	7.2056
2.65	7.21218
2.66	7.20428
2.67	7.19409
2.68	7.18488
2.69	7.18619
2.7	7.18257
2.71	7.16876
2.72	7.14441
2.73	7.14968
2.74	7.15494
2.75	7.16843
2.76	7.14409
2.77	7.15494
2.78	7.13849
2.79	7.13389
2.8	7.13224
2.81	7.12632
2.82	7.0908
2.83	7.08487
2.84	7.09112
2.85	7.08158
2.86	7.09145
2.87	7.07928
2.88	7.06415
2.89	7.05625
2.9	7.05724
2.91	7.05395
2.92	7.05165
2.93	7.04573
2.94	7.02829
2.95	7.0352
2.96	7.02599
2.97	7.01711
2.98	7.02204
2.99	7.01514
3	7.0056
3.01	6.98619
3.02	6.9829
3.03	6.99112
3.04	6.97106
3.05	6.97204
3.06	6.97467
3.07	6.97106
3.08	6.95691
3.09	6.94013
3.1	6.92829
3.11	6.92829
3.12	6.92763
3.13	6.9329
3.14	6.91744
3.15	6.91842
3.16	6.92336
3.17	6.90461
3.18	6.91151
3.19	6.89013
3.2	6.88322
3.21	6.87434
3.22	6.86875
3.23	6.86743
3.24	6.86053
3.25	6.85362
3.26	6.85296
3.27	6.85428
3.28	6.85066
3.29	6.8296
3.3	6.82829
3.31	6.81612
3.32	6.81974
3.33	6.82138
3.34	6.8125
3.35	6.80723
3.36	6.79309
3.37	6.79276
3.38	6.78223
3.39	6.76875
3.4	6.76315
3.41	6.76875
3.42	6.76644
3.43	6.75098
3.44	6.75197
3.45	6.73618
3.46	6.725
3.47	6.73322
3.48	6.72532
3.49	6.71381
3.5	6.72072
3.51	6.73158
3.52	6.71184
3.53	6.69703
3.54	6.68684
3.55	6.68585
3.56	6.6819
3.57	6.67499
3.58	6.67368
3.59	6.66348
3.6	6.67565
3.61	6.65986
3.62	6.64868
3.63	6.64374
3.64	6.62762
3.65	6.62499
3.66	6.62631
3.67	6.62697
3.68	6.6171
3.69	6.60657
3.7	6.61052
3.71	6.59637
3.72	6.59736
3.73	6.58354
3.74	6.57499
3.75	6.5819
3.76	6.57861
3.77	6.574
3.78	6.5694
3.79	6.5615
3.8	6.54637
3.81	6.54275
3.82	6.5467
3.83	6.54177
3.84	6.53387
3.85	6.52071
3.86	6.51479
3.87	6.51019
3.88	6.49703
3.89	6.50854
3.9	6.4842
3.91	6.50262
3.92	6.49374
3.93	6.47894
3.94	6.48321
3.95	6.474
3.96	6.47137
3.97	6.4569
3.98	6.45591
3.99	6.46282
4	6.44604
4.01	6.44374
4.02	6.43387
4.03	6.44111
4.04	6.42663
4.05	6.42992
4.06	6.42466
4.07	6.41643
4.08	6.40064
4.09	6.40393
4.1	6.40229
4.11	6.38518
4.12	6.39209
4.13	6.38979
4.14	6.37959
4.15	6.37499
4.16	6.37499
4.17	6.36709
4.18	6.36545
4.19	6.36183
4.2	6.34538
4.21	6.34538
4.22	6.32992
4.23	6.33617
4.24	6.32729
4.25	6.32071
4.26	6.32663
4.27	6.31479
4.28	6.3013
4.29	6.2911
4.3	6.28354
4.31	6.28156
4.32	6.28156
4.33	6.28387
4.34	6.28058
4.35	6.27334
4.36	6.26676
4.37	6.25821
4.38	6.24604
4.39	6.24439
4.4	6.24538
4.41	6.24702
4.42	6.23748
4.43	6.2263
4.44	6.2309
4.45	6.22498
4.46	6.21676
4.47	6.20163
4.48	6.21643
4.49	6.20919
4.5	6.19472
4.51	6.19899
4.52	6.19932
4.53	6.19143
4.54	6.18353
4.55	6.17597
4.56	6.18255
4.57	6.17136
4.58	6.16544
4.59	6.14768
4.6	6.15952
4.61	6.14603
4.62	6.13748
4.63	6.1332
4.64	6.13024
4.65	6.12991
4.66	6.1263
4.67	6.12366
4.68	6.11774
4.69	6.11314
4.7	6.10393
4.71	6.1036
4.72	6.09636
4.73	6.08452
4.74	6.08847
4.75	6.09702
4.76	6.08287
4.77	6.07958
4.78	6.07596
4.79	6.07366
4.8	6.07202
4.81	6.05754
4.82	6.06116
4.83	6.05754
4.84	6.04965
4.85	6.04636
4.86	6.04767
4.87	6.03024
4.88	6.0207
4.89	6.03485
4.9	6.02498
4.91	6.01577
4.92	6.01248
4.93	6.01379
4.94	6.00557
4.95	5.99208
4.96	5.98583
4.97	5.99636
4.98	6.00359
4.99	5.98386
5	5.98188
5.01	5.9832
5.02	5.9832
5.03	5.973
5.04	5.97103
5.05	5.95293
5.06	5.9605
5.07	5.9582
5.08	5.94932
5.09	5.94241
5.1	5.94142
5.11	5.94011
5.12	5.93254
5.13	5.93714
5.14	5.92761
5.15	5.92563
5.16	5.92136
5.17	5.9128
5.18	5.90063
5.19	5.89931
5.2	5.89603
5.21	5.90688
5.22	5.89109
5.23	5.90392
5.24	5.89372
5.25	5.88912
5.26	5.89274
5.27	5.88681
5.28	5.86872
5.29	5.86379
5.3	5.87037
5.31	5.86017
5.32	5.8605
5.33	5.85984
5.34	5.85096
5.35	5.84833
5.36	5.85227
5.37	5.84241
5.38	5.82793
5.39	5.84504
5.4	5.82892
5.41	5.82069
5.42	5.82135
5.43	5.81313
5.44	5.80655
5.45	5.8026
5.46	5.81412
5.47	5.80688
5.48	5.7878
5.49	5.7855
5.5	5.78089
5.51	5.78615
5.52	5.78451
5.53	5.78813
5.54	5.76938
5.55	5.76477
5.56	5.76675
5.57	5.76214
5.58	5.75293
5.59	5.74865
5.6	5.75424
5.61	5.74767
5.62	5.73155
5.63	5.74076
5.64	5.73714
5.65	5.7322
5.66	5.73319
5.67	5.72924
5.68	5.72892
5.69	5.72661
5.7	5.71806
5.71	5.7072
5.72	5.70589
5.73	5.70556
5.74	5.70589
5.75	5.70819
5.76	5.70095
5.77	5.7049
5.78	5.69766
5.79	5.69339
5.8	5.68681
5.81	5.69076
5.82	5.68845
5.83	5.6776
5.84	5.67826
5.85	5.67661
5.86	5.66872
5.87	5.66312
5.88	5.66312
5.89	5.66345
5.9	5.67036
5.91	5.66115
5.92	5.65589
5.93	5.66115
5.94	5.63977
5.95	5.65326
5.96	5.64964
5.97	5.62891
5.98	5.6276
5.99	5.62793
6	5.63286
6.01	5.63615
6.02	5.61937
6.03	5.61115
6.04	5.61115
6.05	5.61115
6.06	5.60128
6.07	5.60687
6.08	5.6072
6.09	5.58088
6.1	5.59207
6.11	5.58977
6.12	5.58648
6.13	5.58088
6.14	5.57661
6.15	5.56937
6.16	5.56049
6.17	5.56542
6.18	5.56937
6.19	5.5549
6.2	5.55161
6.21	5.56477
6.22	5.55983
6.23	5.54898
6.24	5.54766
6.25	5.54602
6.26	5.53615
6.27	5.52529
6.28	5.52003
6.29	5.52101
6.3	5.53351
6.31	5.52924
6.32	5.51805
6.33	5.50851
6.34	5.50259
6.35	5.4947
6.36	5.50391
6.37	5.51147
6.38	5.49832
6.39	5.49305
6.4	5.48614
6.41	5.49272
6.42	5.48943
6.43	5.48647
6.44	5.48878
6.45	5.48878
6.46	5.48746
6.47	5.47529
6.48	5.47924
6.49	5.48022
6.5	5.47035
6.51	5.46378
6.52	5.44799
6.53	5.45555
6.54	5.44831
6.55	5.45325
6.56	5.45128
6.57	5.44535
6.58	5.44371
6.59	5.44437
6.6	5.43878
6.61	5.44667
6.62	5.43779
6.63	5.44733
6.64	5.4391
6.65	5.42759
6.66	5.42693
6.67	5.41608
6.68	5.42167
6.69	5.41838
6.7	5.41772
6.71	5.41772
6.72	5.42726
6.73	5.41706
6.74	5.397
6.75	5.39897
6.76	5.40259
6.77	5.40456
6.78	5.39996
6.79	5.38779
6.8	5.39141
6.81	5.39173
6.82	5.39141
6.83	5.3845
6.84	5.37726
6.85	5.38285
6.86	5.37792
6.87	5.37496
6.88	5.37792
6.89	5.3743
6.9	5.37693
6.91	5.36377
6.92	5.35127
6.93	5.37035
6.94	5.36575
6.95	5.35818
6.96	5.35029
6.97	5.35752
6.98	5.35029
6.99	5.34305
7	5.3289
7.01	5.34042
7.02	5.34042
7.03	5.33482
7.04	5.3414
7.05	5.34436
7.06	5.33384
7.07	5.31772
7.08	5.32035
7.09	5.31871
7.1	5.31015
7.11	5.30982
7.12	5.31081
7.13	5.29634
7.14	5.30653
7.15	5.29963
7.16	5.29897
7.17	5.29535
7.18	5.28252
7.19	5.28482
7.2	5.2914
7.21	5.28022
7.22	5.28943
7.23	5.29568
7.24	5.28877
7.25	5.2868
7.26	5.27166
7.27	5.29107
7.28	5.2687
7.29	5.26081
7.3	5.26673
7.31	5.26772
7.32	5.26311
7.33	5.2664
7.34	5.26541
7.35	5.25061
7.36	5.24469
7.37	5.25127
7.38	5.25193
7.39	5.24206
7.4	5.25061
7.41	5.25686
7.42	5.25259
7.43	5.25259
7.44	5.24568
7.45	5.24337
7.46	5.24666
7.47	5.23745
7.48	5.2414
7.49	5.23943
7.5	5.22166
7.51	5.22791
7.52	5.23449
7.53	5.22265
7.54	5.2391
7.55	5.22627
7.56	5.21443
7.57	5.21903
7.58	5.21903
7.59	5.22364
7.6	5.22429
7.61	5.19864
7.62	5.20653
7.63	5.21739
7.64	5.20818
7.65	5.21245
7.66	5.19436
7.67	5.18811
7.68	5.19206
7.69	5.20225
7.7	5.18646
7.71	5.19239
7.72	5.18054
7.73	5.18285
7.74	5.17758
7.75	5.18186
7.76	5.17758
7.77	5.16903
7.78	5.17857
7.79	5.17528
7.8	5.1664
7.81	5.16936
7.82	5.15785
7.83	5.15686
7.84	5.14929
7.85	5.15488
7.86	5.16114
7.87	5.14535
7.88	5.15949
7.89	5.14929
7.9	5.14535
7.91	5.15752
7.92	5.14304
7.93	5.14962
7.94	5.15061
7.95	5.15719
7.96	5.14798
7.97	5.14041
7.98	5.15127
7.99	5.13942
8	5.13252
8.01	5.13021
8.02	5.1391
8.03	5.13712
8.04	5.13186
8.05	5.1312
8.06	5.13449
8.07	5.13942
8.08	5.12363
8.09	5.12725
8.1	5.13482
8.11	5.12462
8.12	5.121
8.13	5.12429
8.14	5.12034
8.15	5.10982
8.16	5.10455
8.17	5.10324
8.18	5.11903
8.19	5.10488
8.2	5.11015
8.21	5.10258
8.22	5.0983
8.23	5.10784
8.24	5.09962
8.25	5.10752
8.26	5.09699
8.27	5.08712
8.28	5.08811
8.29	5.08909
8.3	5.08317
8.31	5.08087
8.32	5.0858
8.33	5.09205
8.34	5.08613
8.35	5.08021
8.36	5.06936
8.37	5.06376
8.38	5.06574
8.39	5.06442
8.4	5.05587
8.41	5.07232
8.42	5.07199
8.43	5.06672
8.44	5.06903
8.45	5.05982
8.46	5.06442
8.47	5.04929
8.48	5.06179
8.49	5.06607
8.5	5.05258
8.51	5.06015
8.52	5.03975
8.53	5.03087
8.54	5.04139
8.55	5.0585
8.56	5.04107
8.57	5.03712
8.58	5.0437
8.59	5.04995
8.6	5.04699
8.61	5.03843
8.62	5.04501
8.63	5.03514
8.64	5.02626
8.65	5.03317
8.66	5.03383
8.67	5.03679
8.68	5.04304
8.69	5.02857
8.7	5.02889
8.71	5.03087
8.72	5.01245
8.73	5.02297
8.74	5.02001
8.75	5.02396
8.76	5.0187
8.77	5.02988
8.78	5.00587
8.79	5.0131
8.8	5.01738
8.81	5.02659
8.82	5.01442
8.83	5.02593
8.84	5.01475
8.85	5.01146
8.86	5.00718
8.87	4.99995
8.88	5.0062
8.89	5.00389
8.9	5.00093
8.91	4.99797
8.92	4.99304
8.93	4.9881
8.94	4.98843
8.95	4.9881
8.96	4.9812
8.97	4.98054
8.98	4.97856
8.99	4.97856
9	4.98481
9.01	4.97889
9.02	4.96902
9.03	4.97462
9.04	4.98514
9.05	4.97166
9.06	4.97396
9.07	4.98152
9.08	4.97198
9.09	4.96179
9.1	4.96573
9.11	4.9631
9.12	4.96212
9.13	4.97264
9.14	4.9631
9.15	4.95554
9.16	4.96212
9.17	4.95916
9.18	4.95587
9.19	4.96244
9.2	4.95685
9.21	4.95422
9.22	4.95981
9.23	4.95916
9.24	4.94369
9.25	4.94337
9.26	4.94369
9.27	4.94994
9.28	4.94304
9.29	4.95323
9.3	4.94402
9.31	4.94402
9.32	4.94567
9.33	4.94764
9.34	4.95356
9.35	4.95126
9.36	4.93942
9.37	4.93876
9.38	4.93251
9.39	4.93547
9.4	4.93744
9.41	4.93646
9.42	4.93317
9.43	4.92922
9.44	4.92889
9.45	4.93547
9.46	4.92692
9.47	4.92198
9.48	4.92889
9.49	4.92659
9.5	4.93185
9.51	4.92264
9.52	4.9279
9.53	4.93448
9.54	4.92725
9.55	4.9154
9.56	4.91244
9.57	4.91738
9.58	4.91804
9.59	4.91639
9.6	4.91409
9.61	4.9029
9.62	4.90257
9.63	4.89994
9.64	4.90159
9.65	4.9006
9.66	4.90159
9.67	4.89665
9.68	4.90521
9.69	4.91211
9.7	4.90126
9.71	4.90192
9.72	4.89896
9.73	4.90455
9.74	4.90093
9.75	4.89534
9.76	4.90323
9.77	4.90554
9.78	4.90323
9.79	4.9029
9.8	4.89896
9.81	4.89698
9.82	4.90389
9.83	4.89896
9.84	4.89238
9.85	4.88909
9.86	4.88547
9.87	4.88909
9.88	4.8904
9.89	4.88119
9.9	4.89336
9.91	4.89896
9.92	4.89205
9.93	4.88711
9.94	4.88777
9.95	4.88251
9.96	4.8881
9.97	4.88251
9.98	4.88777
9.99	4.88185
10	4.88284
10.01	4.87856
10.02	4.86442
10.03	4.86606
10.04	4.87757
10.05	4.88053
10.06	4.87132
10.07	4.86968
10.08	4.87823
10.09	4.88119
10.1	4.86705
10.11	4.87527
10.12	4.86902
10.13	4.86968
10.14	4.87823
10.15	4.87034
10.16	4.86507
10.17	4.86145
10.18	4.85817
10.19	4.8654
10.2	4.85455
10.21	4.85455
10.22	4.85849
10.23	4.85718
10.24	4.85948
10.25	4.86442
10.26	4.85619
10.27	4.84994
10.28	4.85455
10.29	4.86113
10.3	4.85685
10.31	4.8506
10.32	4.84007
10.33	4.84632
10.34	4.84895
10.35	4.84764
10.36	4.84534
10.37	4.83744
10.38	4.85093
10.39	4.84863
10.4	4.84961
10.41	4.85257
10.42	4.8483
10.43	4.83645
10.44	4.8358
10.45	4.84007
10.46	4.8381
10.47	4.84007
10.48	4.8404
10.49	4.84205
10.5	4.83119
10.51	4.82988
10.52	4.84567
10.53	4.83119
10.54	4.82955
10.55	4.83678
10.56	4.83152
10.57	4.82297
10.58	4.83514
10.59	4.83415
10.6	4.83481
10.61	4.82593
10.62	4.83152
10.63	4.83349
10.64	4.82461
10.65	4.83744
10.66	4.8358
10.67	4.82856
10.68	4.83251
10.69	4.82922
10.7	4.82461
10.71	4.82724
10.72	4.81376
10.73	4.82922
10.74	4.83152
10.75	4.81639
10.76	4.80257
10.77	4.80981
10.78	4.82264
10.79	4.81869
10.8	4.81935
10.81	4.8233
10.82	4.8154
10.83	4.81047
10.84	4.81014
10.85	4.80389
10.86	4.8154
10.87	4.80191
10.88	4.81244
10.89	4.79994
10.9	4.80915
10.91	4.81902
10.92	4.80257
10.93	4.80586
10.94	4.7983
10.95	4.80981
10.96	4.79862
10.97	4.80093
10.98	4.80126
10.99	4.80126
11	4.80356
11.01	4.80323
11.02	4.7983
11.03	4.80257
11.04	4.79566
11.05	4.80126
11.06	4.79862
11.07	4.80158
11.08	4.80356
11.09	4.79139
11.1	4.80093
11.11	4.80257
11.12	4.79501
11.13	4.79369
11.14	4.79303
11.15	4.79533
11.16	4.78415
11.17	4.7904
11.18	4.78744
11.19	4.79468
11.2	4.78547
11.21	4.78876
11.22	4.79435
11.23	4.78941
11.24	4.7904
11.25	4.78382
11.26	4.7881
11.27	4.78185
11.28	4.78843
11.29	4.77823
11.3	4.78678
11.31	4.7927
11.32	4.77625
11.33	4.78119
11.34	4.77757
11.35	4.7756
11.36	4.77823
11.37	4.78283
11.38	4.77823
11.39	4.77527
11.4	4.78941
11.41	4.77527
11.42	4.7881
11.43	4.77264
11.44	4.7779
11.45	4.77494
11.46	4.77099
11.47	4.7779
11.48	4.77954
11.49	4.77231
11.5	4.77132
11.51	4.77428
11.52	4.76573
11.53	4.76803
11.54	4.77889
11.55	4.7631
11.56	4.76474
11.57	4.76639
11.58	4.76474
11.59	4.76639
11.6	4.75981
11.61	4.76474
11.62	4.7529
11.63	4.76244
11.64	4.75915
11.65	4.7552
11.66	4.75586
11.67	4.75158
11.68	4.7529
11.69	4.74731
11.7	4.76112
11.71	4.76639
11.72	4.75948
11.73	4.75915
11.74	4.75718
11.75	4.76408
11.76	4.7552
11.77	4.75257
11.78	4.75323
11.79	4.74961
11.8	4.75323
11.81	4.76573
11.82	4.7654
11.83	4.76112
11.84	4.74994
11.85	4.7506
11.86	4.74468
11.87	4.74862
11.88	4.75586
11.89	4.7529
11.9	4.75553
11.91	4.75323
11.92	4.75191
11.93	4.74303
11.94	4.74796
11.95	4.74435
11.96	4.74731
11.97	4.74533
11.98	4.75191
11.99	4.74435
12	4.7529
12.01	4.7529
12.02	4.73908
12.03	4.73744
12.04	4.73546
12.05	4.73382
12.06	4.74073
12.07	4.74435
12.08	4.7427
12.09	4.7381
12.1	4.73645
12.11	4.74533
12.12	4.74073
12.13	4.7325
12.14	4.74139
12.15	4.73382
12.16	4.73842
12.17	4.74073
12.18	4.73053
12.19	4.73777
12.2	4.74007
12.21	4.74533
12.22	4.73744
12.23	4.7404
12.24	4.73842
12.25	4.74336
12.26	4.73744
12.27	4.74533
12.28	4.73448
12.29	4.73152
12.3	4.73744
12.31	4.73974
12.32	4.73053
12.33	4.72527
12.34	4.74895
12.35	4.72889
12.36	4.74106
12.37	4.73612
12.38	4.73678
12.39	4.72395
12.4	4.72527
12.41	4.7427
12.42	4.73382
12.43	4.72724
12.44	4.73382
12.45	4.73448
12.46	4.72856
12.47	4.72987
12.48	4.72658
12.49	4.72724
12.5	4.73382
12.51	4.7427
12.52	4.73711
12.53	4.73481
12.54	4.72658
12.55	4.73185
12.56	4.73185
12.57	4.72033
12.58	4.71573
12.59	4.72362
12.6	4.72231
12.61	4.72625
12.62	4.73152
12.63	4.72
12.64	4.7279
12.65	4.72362
12.66	4.72033
12.67	4.7177
12.68	4.7154
12.69	4.72198
12.7	4.72428
12.71	4.72527
12.72	4.72395
12.73	4.72
12.74	4.71342
12.75	4.71408
12.76	4.7075
12.77	4.71342
12.78	4.70981
12.79	4.71408
12.8	4.7154
12.81	4.70652
12.82	4.71342
12.83	4.72263
12.84	4.71869
12.85	4.71277
12.86	4.7154
12.87	4.71737
12.88	4.70388
12.89	4.7075
12.9	4.7131
12.91	4.7075
12.92	4.71211
12.93	4.70619
12.94	4.72329
12.95	4.71474
12.96	4.70684
12.97	4.70717
12.98	4.71277
12.99	4.71507
13	4.69698
13.01	4.70586
13.02	4.70323
13.03	4.7075
13.04	4.70224
13.05	4.70027
13.06	4.70783
13.07	4.70257
13.08	4.70783
13.09	4.71342
13.1	4.70224
13.11	4.70553
13.12	4.69533
13.13	4.69961
13.14	4.71375
13.15	4.71803
13.16	4.70487
13.17	4.70849
13.18	4.69698
13.19	4.69336
13.2	4.69862
13.21	4.70191
13.22	4.70158
13.23	4.70388
13.24	4.69928
13.25	4.70421
13.26	4.70027
13.27	4.69237
13.28	4.68974
13.29	4.69796
13.3	4.6904
13.31	4.69533
13.32	4.69928
13.33	4.68974
13.34	4.68645
13.35	4.68349
13.36	4.69073
13.37	4.69138
13.38	4.68645
13.39	4.6825
13.4	4.68053
13.41	4.68678
13.42	4.68908
13.43	4.68908
13.44	4.6848
13.45	4.68941
13.46	4.6904
13.47	4.695
13.48	4.68809
13.49	4.68448
13.5	4.68448
13.51	4.67823
13.52	4.68184
13.53	4.67691
13.54	4.67987
13.55	4.69369
13.56	4.68711
13.57	4.68316
13.58	4.67921
13.59	4.67494
13.6	4.68184
13.61	4.68974
13.62	4.6825
13.63	4.6723
13.64	4.6848
13.65	4.67757
13.66	4.67428
13.67	4.67823
13.68	4.66671
13.69	4.68086
13.7	4.66375
13.71	4.66803
13.72	4.67099
13.73	4.6723
13.74	4.67691
13.75	4.67855
13.76	4.6825
13.77	4.69073
13.78	4.68612
13.79	4.67987
13.8	4.67724
13.81	4.68283
13.82	4.68316
13.83	4.68053
13.84	4.695
13.85	4.68053
13.86	4.6677
13.87	4.67823
13.88	4.67855
13.89	4.67888
13.9	4.68283
13.91	4.68184
13.92	4.68217
13.93	4.68152
13.94	4.67855
13.95	4.67296
13.96	4.67362
13.97	4.6802
13.98	4.67855
13.99	4.68941
14	4.6802
14.01	4.68777
14.02	4.68546
14.03	4.68941
14.04	4.66901
14.05	4.67921
14.06	4.67263
14.07	4.6779
14.08	4.67691
14.09	4.67855
14.1	4.66309
14.11	4.66967
14.12	4.66605
14.13	4.66145
14.14	4.66638
14.15	4.67033
14.16	4.66244
14.17	4.67888
14.18	4.67362
14.19	4.67724
14.2	4.66671
14.21	4.6677
14.22	4.68119
14.23	4.66375
14.24	4.66737
14.25	4.66375
14.26	4.66605
14.27	4.66573
14.28	4.66474
14.29	4.6598
14.3	4.66605
14.31	4.65421
14.32	4.66244
14.33	4.66276
14.34	4.66507
14.35	4.66145
14.36	4.66737
14.37	4.66408
14.38	4.66309
14.39	4.65586
14.4	4.64994
14.41	4.65816
14.42	4.65684
14.43	4.6677
14.44	4.67099
14.45	4.6598
14.46	4.65224
14.47	4.66079
14.48	4.66013
14.49	4.66507
14.5	4.66474
14.51	4.66441
14.52	4.66079
14.53	4.65619
14.54	4.6598
14.55	4.66178
14.56	4.65684
14.57	4.65421
14.58	4.65915
14.59	4.66244
14.6	4.65948
14.61	4.65092
14.62	4.65651
14.63	4.67428
14.64	4.66375
14.65	4.67033
14.66	4.6677
14.67	4.66244
14.68	4.66309
14.69	4.65224
14.7	4.64994
14.71	4.66803
14.72	4.66671
14.73	4.66244
14.74	4.66244
14.75	4.6598
14.76	4.66441
14.77	4.66507
14.78	4.66573
14.79	4.65553
14.8	4.64994
14.81	4.67428
14.82	4.67132
14.83	4.65059
14.84	4.65454
14.85	4.66178
14.86	4.64961
14.87	4.66178
14.88	4.66967
14.89	4.66638
14.9	4.66013
14.91	4.64895
14.92	4.66145
14.93	4.66046
14.94	4.65092
14.95	4.64369
14.96	4.65059
14.97	4.65125
14.98	4.6529
14.99	4.65553
15	4.65224
15.01	4.64829
15.02	4.64862
15.03	4.6529
15.04	4.64204
15.05	4.64599
15.06	4.65651
15.07	4.64994
15.08	4.63711
15.09	4.65092
15.1	4.65224
15.11	4.65125
15.12	4.64796
15.13	4.64665
15.14	4.65059
15.15	4.66013
15.16	4.6529
15.17	4.65191
15.18	4.63513
15.19	4.64303
15.2	4.65158
15.21	4.64467
15.22	4.63612
15.23	4.63283
15.24	4.63941
15.25	4.64105
15.26	4.6348
15.27	4.63579
15.28	4.63151
15.29	4.63743
15.3	4.63382
15.31	4.64401
15.32	4.64566
15.33	4.64303
15.34	4.64072
15.35	4.64171
15.36	4.63743
15.37	4.63776
15.38	4.62526
15.39	4.62691
15.4	4.62263
15.41	4.63842
15.42	4.63842
15.43	4.63349
15.44	4.63447
15.45	4.63711
15.46	4.64336
15.47	4.64401
15.48	4.64829
15.49	4.63316
15.5	4.6427
15.51	4.64467
15.52	4.64072
15.53	4.63974
15.54	4.64007
15.55	4.63743
15.56	4.65355
15.57	4.6552
15.58	4.65191
15.59	4.64401
15.6	4.64665
15.61	4.64467
15.62	4.63842
15.63	4.64928
15.64	4.6575
15.65	4.65125
15.66	4.64336
15.67	4.65421
15.68	4.64961
15.69	4.64007
15.7	4.64204
15.71	4.6473
15.72	4.64862
15.73	4.64829
15.74	4.64434
15.75	4.63842
15.76	4.63743
15.77	4.62954
15.78	4.63612
15.79	4.64138
15.8	4.63151
15.81	4.64007
15.82	4.64632
15.83	4.64237
15.84	4.63513
15.85	4.6302
15.86	4.62658
15.87	4.62691
15.88	4.62987
15.89	4.63842
15.9	4.64072
15.91	4.6302
15.92	4.61868
15.93	4.62658
15.94	4.62658
15.95	4.61638
15.96	4.62954
15.97	4.64105
15.98	4.63086
15.99	4.61243
16	4.62987
16.01	4.6302
16.02	4.62428
16.03	4.61836
16.04	4.61178
16.05	4.61342
16.06	4.62099
16.07	4.61408
16.08	4.61507
16.09	4.61868
16.1	4.63447
16.11	4.63118
16.12	4.61671
16.13	4.62921
16.14	4.61408
16.15	4.61375
16.16	4.62757
16.17	4.62395
16.18	4.61704
16.19	4.62526
16.2	4.62164
16.21	4.61539
16.22	4.62033
16.23	4.61375
16.24	4.61375
16.25	4.61836
16.26	4.63283
16.27	4.63151
16.28	4.62526
16.29	4.61539
16.3	4.6223
16.31	4.62822
16.32	4.6223
16.33	4.61572
16.34	4.61112
16.35	4.62099
16.36	4.62395
16.37	4.62461
16.38	4.62362
16.39	4.61868
16.4	4.62197
16.41	4.62066
16.42	4.62
16.43	4.63546
16.44	4.61901
16.45	4.62461
16.46	4.61803
16.47	4.62592
16.48	4.62592
16.49	4.61704
16.5	4.62757
16.51	4.62329
16.52	4.62099
16.53	4.62757
16.54	4.62954
16.55	4.61967
16.56	4.61671
16.57	4.60684
16.58	4.61539
16.59	4.61836
16.6	4.61276
16.61	4.62428
16.62	4.61934
16.63	4.62263
16.64	4.60947
16.65	4.61309
16.66	4.62197
16.67	4.6279
16.68	4.62724
16.69	4.62428
16.7	4.62329
16.71	4.61934
16.72	4.62066
16.73	4.61605
16.74	4.6177
16.75	4.62099
16.76	4.61671
16.77	4.60618
16.78	4.61572
16.79	4.62033
16.8	4.61638
16.81	4.62757
16.82	4.61638
16.83	4.62329
16.84	4.63151
16.85	4.61836
16.86	4.62066
16.87	4.61836
16.88	4.62164
16.89	4.61572
16.9	4.61309
16.91	4.60914
16.92	4.61671
16.93	4.61211
16.94	4.61967
16.95	4.61967
16.96	4.5996
16.97	4.60454
16.98	4.60618
16.99	4.62395
17	4.6177
17.01	4.60914
17.02	4.6177
17.03	4.61211
17.04	4.61934
17.05	4.62329
17.06	4.62921
17.07	4.62164
17.08	4.61342
17.09	4.61408
17.1	4.60882
17.11	4.61539
17.12	4.61178
17.13	4.61079
17.14	4.62428
17.15	4.61375
17.16	4.61145
17.17	4.60618
17.18	4.61046
17.19	4.6177
17.2	4.61638
17.21	4.60882
17.22	4.60191
17.23	4.62164
17.24	4.61441
17.25	4.61243
17.26	4.61211
17.27	4.60651
17.28	4.61375
17.29	4.61572
17.3	4.61671
17.31	4.61868
17.32	4.61737
17.33	4.59862
17.34	4.59993
17.35	4.60322
17.36	4.61868
17.37	4.61737
17.38	4.61704
17.39	4.59763
17.4	4.60355
17.41	4.60684
17.42	4.61474
17.43	4.59862
17.44	4.59599
17.45	4.60224
17.46	4.60816
17.47	4.61803
17.48	4.61178
17.49	4.60125
17.5	4.6177
17.51	4.60783
17.52	4.60224
17.53	4.60059
17.54	4.60618
17.55	4.60454
17.56	4.59829
17.57	4.60816
17.58	4.62164
17.59	4.61836
17.6	4.61309
17.61	4.62
17.62	4.60849
17.63	4.61112
17.64	4.61342
17.65	4.61671
17.66	4.5996
17.67	4.60783
17.68	4.60849
17.69	4.61967
17.7	4.61441
17.71	4.62164
17.72	4.60026
17.73	4.5973
17.74	4.60684
17.75	4.61211
17.76	4.61112
17.77	4.6098
17.78	4.60717
17.79	4.61145
17.8	4.6098
17.81	4.61704
17.82	4.60388
17.83	4.6052
17.84	4.61276
17.85	4.61408
17.86	4.61868
17.87	4.61112
17.88	4.60257
17.89	4.59237
17.9	4.59829
17.91	4.61539
17.92	4.60322
17.93	4.6052
17.94	4.59566
17.95	4.59862
17.96	4.5871
17.97	4.60158
17.98	4.5973
17.99	4.595
18	4.59237
18.01	4.60421
18.02	4.59697
18.03	4.60553
18.04	4.60322
18.05	4.59895
18.06	4.5927
18.07	4.58809
18.08	4.59895
18.09	4.60388
18.1	4.59862
18.11	4.59566
18.12	4.58875
18.13	4.59105
18.14	4.59928
18.15	4.60651
18.16	4.60553
18.17	4.59664
18.18	4.59467
18.19	4.5996
18.2	4.60026
18.21	4.60224
18.22	4.59599
18.23	4.5871
18.24	4.60322
18.25	4.60191
18.26	4.58842
18.27	4.59829
18.28	4.59599
18.29	4.60618
18.3	4.59632
18.31	4.58974
18.32	4.60224
18.33	4.59763
18.34	4.59796
18.35	4.59928
18.36	4.60388
18.37	4.59335
18.38	4.59467
18.39	4.59895
18.4	4.6052
18.41	4.59895
18.42	4.60388
18.43	4.59171
18.44	4.58809
18.45	4.59599
18.46	4.59599
18.47	4.60289
18.48	4.59993
18.49	4.58974
18.5	4.59697
18.51	4.60224
18.52	4.60388
18.53	4.60289
18.54	4.60783
18.55	4.60322
18.56	4.59072
18.57	4.59566
18.58	4.61375
18.59	4.60553
18.6	4.59895
18.61	4.59368
18.62	4.60092
18.63	4.59796
18.64	4.60158
18.65	4.61112
18.66	4.60454
18.67	4.59303
18.68	4.59599
18.69	4.59335
18.7	4.60059
18.71	4.60322
18.72	4.59303
18.73	4.59895
18.74	4.59072
18.75	4.60355
18.76	4.61145
18.77	4.6052
18.78	4.59862
18.79	4.58908
18.8	4.59368
18.81	4.58612
18.82	4.59105
18.83	4.60125
18.84	4.59895
18.85	4.59697
18.86	4.59467
18.87	4.59138
18.88	4.59105
18.89	4.58579
18.9	4.60125
18.91	4.59632
18.92	4.60059
18.93	4.59039
18.94	4.59105
18.95	4.58809
18.96	4.58875
18.97	4.59039
18.98	4.59763
18.99	4.58875
19	4.57296
19.01	4.57954
19.02	4.59664
19.03	4.59303
19.04	4.58151
19.05	4.57921
19.06	4.58743
19.07	4.58579
19.08	4.58447
19.09	4.5927
19.1	4.5871
19.11	4.58941
19.12	4.58875
19.13	4.58875
19.14	4.58908
19.15	4.58645
19.16	4.59566
19.17	4.58776
19.18	4.59105
19.19	4.59434
19.2	4.59204
19.21	4.58513
19.22	4.5871
19.23	4.57855
19.24	4.57921
19.25	4.57855
19.26	4.5848
19.27	4.595
19.28	4.5848
19.29	4.5996
19.3	4.58513
19.31	4.58118
19.32	4.58743
19.33	4.58612
19.34	4.59796
19.35	4.59697
19.36	4.58217
19.37	4.58612
19.38	4.59039
19.39	4.58085
19.4	4.58743
19.41	4.59763
19.42	4.59368
19.43	4.58316
19.44	4.58085
19.45	4.59434
19.46	4.5848
19.47	4.59204
19.48	4.58151
19.49	4.58974
19.5	4.56671
19.51	4.57197
19.52	4.57395
19.53	4.59204
19.54	4.58678
19.55	4.58776
19.56	4.5802
19.57	4.58645
19.58	4.57987
19.59	4.58743
19.6	4.5871
19.61	4.58546
19.62	4.5746
19.63	4.57756
19.64	4.58349
19.65	4.57493
19.66	4.5825
19.67	4.57888
19.68	4.57954
19.69	4.57658
19.7	4.57263
19.71	4.58349
19.72	4.58974
19.73	4.57625
19.74	4.56572
19.75	4.57066
19.76	4.57197
19.77	4.58217
19.78	4.58513
19.79	4.57756
19.8	4.58612
19.81	4.58184
19.82	4.57691
19.83	4.58776
19.84	4.58842
19.85	4.58842
19.86	4.57888
19.87	4.58414
19.88	4.58118
19.89	4.57822
19.9	4.57395
19.91	4.57789
19.92	4.59072
19.93	4.57756
19.94	4.58085
19.95	4.58118
19.96	4.5848
19.97	4.58217
19.98	4.57592
19.99	4.56835
20	4.57066
20.01	4.57855
20.02	4.58217
20.03	4.57329
20.04	4.57428
20.05	4.57756
20.06	4.57855
20.07	4.57263
20.08	4.57296
20.09	4.59138
20.1	4.59039
20.11	4.57888
20.12	4.58184
20.13	4.57855
20.14	4.57197
20.15	4.57164
20.16	4.58842
20.17	4.57954
20.18	4.58085
20.19	4.58447
20.2	4.57099
20.21	4.56901
20.22	4.57789
20.23	4.57625
20.24	4.56177
20.25	4.57658
20.26	4.57395
20.27	4.57822
20.28	4.57724
20.29	4.57066
20.3	4.5723
20.31	4.57395
20.32	4.58184
20.33	4.57921
20.34	4.59039
20.35	4.57263
20.36	4.57164
20.37	4.57756
20.38	4.58053
20.39	4.57625
20.4	4.57263
20.41	4.57592
20.42	4.57789
20.43	4.57493
20.44	4.57099
20.45	4.57691
20.46	4.57526
20.47	4.57855
20.48	4.57493
20.49	4.57724
20.5	4.58283
20.51	4.5723
20.52	4.57263
20.53	4.57954
20.54	4.5746
20.55	4.58283
20.56	4.58974
20.57	4.57592
20.58	4.57329
20.59	4.5871
20.6	4.57954
20.61	4.57362
20.62	4.57691
20.63	4.56605
20.64	4.57296
20.65	4.5746
20.66	4.58053
20.67	4.58678
20.68	4.5848
20.69	4.56408
20.7	4.56539
20.71	4.56671
20.72	4.5802
20.73	4.57756
20.74	4.56572
20.75	4.57197
20.76	4.57428
20.77	4.57066
20.78	4.58217
20.79	4.57921
20.8	4.57131
20.81	4.57724
20.82	4.56835
20.83	4.57033
20.84	4.58118
20.85	4.57822
20.86	4.57263
20.87	4.58053
20.88	4.57625
20.89	4.56802
20.9	4.57691
20.91	4.57987
20.92	4.56967
20.93	4.56901
20.94	4.5677
20.95	4.58414
20.96	4.5848
20.97	4.57428
20.98	4.5746
20.99	4.57855
21	4.56177
21.01	4.55618
21.02	4.57428
21.03	4.57197
21.04	4.56408
21.05	4.56967
21.06	4.57691
21.07	4.57164
21.08	4.57592
21.09	4.5598
21.1	4.5677
21.11	4.57296
21.12	4.56572
21.13	4.57395
21.14	4.56967
21.15	4.56901
21.16	4.57526
21.17	4.57033
21.18	4.56967
21.19	4.55947
21.2	4.55158
21.21	4.56474
21.22	4.56638
21.23	4.55783
21.24	4.57
21.25	4.56868
21.26	4.56243
21.27	4.55355
21.28	4.56638
21.29	4.56441
21.3	4.56408
21.31	4.57164
21.32	4.57658
21.33	4.57066
21.34	4.57296
21.35	4.56112
21.36	4.56539
21.37	4.56967
21.38	4.56802
21.39	4.55191
21.4	4.55849
21.41	4.57493
21.42	4.56276
21.43	4.57033
21.44	4.56704
21.45	4.56375
21.46	4.56474
21.47	4.57099
21.48	4.56243
21.49	4.56441
21.5	4.56572
21.51	4.55947
21.52	4.57789
21.53	4.57559
21.54	4.57625
21.55	4.56671
21.56	4.57164
21.57	4.56441
21.58	4.56605
21.59	4.56408
21.6	4.56441
21.61	4.56572
21.62	4.56441
21.63	4.56145
21.64	4.56441
21.65	4.56967
21.66	4.56046
21.67	4.56934
21.68	4.56539
21.69	4.56177
21.7	4.56112
21.71	4.56967
21.72	4.56079
21.73	4.5575
21.74	4.56901
21.75	4.56474
21.76	4.57395
21.77	4.57164
21.78	4.56441
21.79	4.55947
21.8	4.56802
21.81	4.56375
21.82	4.55816
21.83	4.56802
21.84	4.57329
21.85	4.57099
21.86	4.55914
21.87	4.56474
21.88	4.55618
21.89	4.5621
21.9	4.55552
21.91	4.56375
21.92	4.56342
21.93	4.56243
21.94	4.5598
21.95	4.57066
21.96	4.56441
21.97	4.56243
21.98	4.56342
21.99	4.55947
22	4.55783
22.01	4.57263
22.02	4.57329
22.03	4.57855
22.04	4.57131
22.05	4.56309
22.06	4.55947
22.07	4.56177
22.08	4.56737
22.09	4.55816
22.1	4.5598
22.11	4.56967
22.12	4.57789
22.13	4.55585
22.14	4.56177
22.15	4.54895
22.16	4.55421
22.17	4.56967
22.18	4.56441
22.19	4.55849
22.2	4.56145
22.21	4.56276
22.22	4.56375
22.23	4.55684
22.24	4.56441
22.25	4.5598
22.26	4.5598
22.27	4.54927
22.28	4.56572
22.29	4.55849
22.3	4.57066
22.31	4.5621
22.32	4.56638
22.33	4.57987
22.34	4.55849
22.35	4.55881
22.36	4.56375
22.37	4.5552
22.38	4.5598
22.39	4.56638
22.4	4.56967
22.41	4.56835
22.42	4.56375
22.43	4.56177
22.44	4.56901
22.45	4.56474
22.46	4.55684
22.47	4.5575
22.48	4.55059
22.49	4.56276
22.5	4.55651
22.51	4.55289
22.52	4.55914
22.53	4.55125
22.54	4.55914
22.55	4.55947
22.56	4.54829
22.57	4.5598
22.58	4.55092
22.59	4.55322
22.6	4.55454
22.61	4.55092
22.62	4.55026
22.63	4.55783
22.64	4.56276
22.65	4.55322
22.66	4.54763
22.67	4.55092
22.68	4.55881
22.69	4.55158
22.7	4.56079
22.71	4.55026
22.72	4.55059
22.73	4.55454
22.74	4.56013
22.75	4.55487
22.76	4.55223
22.77	4.5552
22.78	4.55816
22.79	4.5677
22.8	4.56013
22.81	4.55816
22.82	4.5496
22.83	4.54895
22.84	4.54697
22.85	4.54927
22.86	4.56145
22.87	4.55388
22.88	4.55618
22.89	4.55487
22.9	4.56079
22.91	4.55454
22.92	4.55191
22.93	4.55289
22.94	4.54763
22.95	4.55849
22.96	4.55947
22.97	4.5677
22.98	4.56079
22.99	4.56013
23	4.55816
23.01	4.55585
23.02	4.55947
23.03	4.56539
23.04	4.56802
23.05	4.55421
23.06	4.55026
23.07	4.55717
23.08	4.55191
23.09	4.55849
23.1	4.55191
23.11	4.55881
23.12	4.55816
23.13	4.56474
23.14	4.55585
23.15	4.55618
23.16	4.54664
23.17	4.55552
23.18	4.54631
23.19	4.55158
23.2	4.55289
23.21	4.55355
23.22	4.5496
23.23	4.5598
23.24	4.54763
23.25	4.55059
23.26	4.5575
23.27	4.55816
23.28	4.55454
23.29	4.5473
23.3	4.55322
23.31	4.55552
23.32	4.56013
23.33	4.56243
23.34	4.5552
23.35	4.56046
23.36	4.54993
23.37	4.55717
23.38	4.55454
23.39	4.55618
23.4	4.55717
23.41	4.55355
23.42	4.55881
23.43	4.54796
23.44	4.54796
23.45	4.55914
23.46	4.55585
23.47	4.55651
23.48	4.55355
23.49	4.55355
23.5	4.55059
23.51	4.54171
23.52	4.55322
23.53	4.54862
23.54	4.53644
23.55	4.54631
23.56	4.55026
23.57	4.55092
23.58	4.54171
23.59	4.53973
23.6	4.54598
23.61	4.55059
23.62	4.54895
23.63	4.55158
23.64	4.54927
23.65	4.55059
23.66	4.55421
23.67	4.5496
23.68	4.55191
23.69	4.54829
23.7	4.55487
23.71	4.56342
23.72	4.55223
23.73	4.55487
23.74	4.56112
23.75	4.55849
23.76	4.56013
23.77	4.55092
23.78	4.55618
23.79	4.5575
23.8	4.54763
23.81	4.54204
23.82	4.5473
23.83	4.53842
23.84	4.54171
23.85	4.54335
23.86	4.54566
23.87	4.55059
23.88	4.545
23.89	4.53513
23.9	4.55223
23.91	4.54927
23.92	4.54368
23.93	4.55158
23.94	4.55125
23.95	4.54434
23.96	4.5496
23.97	4.55816
23.98	4.54763
23.99	4.5496
24	4.55454
24.01	4.54566
24.02	4.5427
24.03	4.54467
24.04	4.54993
24.05	4.54763
24.06	4.54796
24.07	4.54138
24.08	4.54138
24.09	4.54862
24.1	4.54302
24.11	4.55125
24.12	4.54467
24.13	4.53941
24.14	4.5473
24.15	4.54138
24.16	4.54335
24.17	4.53842
24.18	4.55026
24.19	4.5496
24.2	4.55849
24.21	4.54862
24.22	4.54467
24.23	4.55849
24.24	4.54927
24.25	4.54927
24.26	4.54993
24.27	4.55684
24.28	4.55125
24.29	4.5496
24.3	4.54862
24.31	4.54533
24.32	4.54105
24.33	4.54664
24.34	4.54204
24.35	4.54434
24.36	4.55388
24.37	4.54862
24.38	4.55125
24.39	4.5427
24.4	4.53414
24.41	4.5473
24.42	4.54072
24.43	4.54533
24.44	4.54434
24.45	4.55289
24.46	4.55388
24.47	4.55388
24.48	4.54368
24.49	4.5371
24.5	4.55618
24.51	4.5598
24.52	4.54895
24.53	4.55026
24.54	4.56375
24.55	4.55059
24.56	4.55125
24.57	4.54763
24.58	4.54598
24.59	4.53875
24.6	4.55552
24.61	4.55552
24.62	4.54237
24.63	4.53743
24.64	4.54434
24.65	4.55223
24.66	4.55684
24.67	4.5427
24.68	4.53579
24.69	4.54796
24.7	4.55125
24.71	4.545
24.72	4.53283
24.73	4.55059
24.74	4.54368
24.75	4.54302
24.76	4.54006
24.77	4.53513
24.78	4.5427
24.79	4.54237
24.8	4.53579
24.81	4.54006
24.82	4.54533
24.83	4.53941
24.84	4.54566
24.85	4.52888
24.86	4.52921
24.87	4.53842
24.88	4.55026
24.89	4.52427
24.9	4.53644
24.91	4.5427
24.92	4.54039
24.93	4.53908
24.94	4.54467
24.95	4.55289
24.96	4.53513
24.97	4.54664
24.98	4.5473
24.99	4.54829
25	4.55092
25.01	4.54796
25.02	4.53217
25.03	4.54368
25.04	4.55552
25.05	4.53908
25.06	4.53118
25.07	4.54401
25.08	4.53875
25.09	4.54335
25.1	4.53447
25.11	4.5325
25.12	4.54006
25.13	4.54335
25.14	4.54566
25.15	4.53875
25.16	4.53612
25.17	4.54566
25.18	4.5371
25.19	4.54072
25.2	4.52789
25.21	4.53283
25.22	4.54006
25.23	4.54895
25.24	4.54302
25.25	4.53776
25.26	4.5348
25.27	4.5427
25.28	4.5427
25.29	4.545
25.3	4.53612
25.31	4.53941
25.32	4.54598
25.33	4.53875
25.34	4.53447
25.35	4.54072
25.36	4.53941
25.37	4.53743
25.38	4.54072
25.39	4.54335
25.4	4.54171
25.41	4.53085
25.42	4.54829
25.43	4.53644
25.44	4.53941
25.45	4.54467
25.46	4.54171
25.47	4.54039
25.48	4.53875
25.49	4.53677
25.5	4.53809
25.51	4.53842
25.52	4.5473
25.53	4.5371
25.54	4.54763
25.55	4.52987
25.56	4.53085
25.57	4.53842
25.58	4.53513
25.59	4.55487
25.6	4.54598
25.61	4.53941
25.62	4.54467
25.63	4.53151
25.64	4.53546
25.65	4.54434
25.66	4.52691
25.67	4.52526
25.68	4.53348
25.69	4.52888
25.7	4.53118
25.71	4.53217
25.72	4.53842
25.73	4.53973
25.74	4.53447
25.75	4.53513
25.76	4.53908
25.77	4.54467
25.78	4.5348
25.79	4.53644
25.8	4.53546
25.81	4.54401
25.82	4.54039
25.83	4.54006
25.84	4.53612
25.85	4.53546
25.86	4.53381
25.87	4.52888
25.88	4.53447
25.89	4.54138
25.9	4.53973
25.91	4.53283
25.92	4.54204
25.93	4.53151
25.94	4.53612
25.95	4.53447
25.96	4.53875
25.97	4.53085
25.98	4.53612
25.99	4.53612
26	4.53447
26.01	4.53151
26.02	4.54039
26.03	4.54335
26.04	4.52691
26.05	4.52394
26.06	4.53973
26.07	4.53151
26.08	4.52855
26.09	4.52691
26.1	4.53842
26.11	4.54006
26.12	4.54105
26.13	4.54335
26.14	4.54335
26.15	4.54566
26.16	4.54171
26.17	4.53447
26.18	4.54401
26.19	4.54006
26.2	4.53809
26.21	4.53381
26.22	4.54566
26.23	4.53973
26.24	4.53612
26.25	4.54105
26.26	4.54006
26.27	4.54006
26.28	4.55223
26.29	4.54434
26.3	4.53644
26.31	4.54467
26.32	4.54039
26.33	4.52131
26.34	4.53908
26.35	4.5325
26.36	4.53941
26.37	4.53612
26.38	4.54796
26.39	4.53809
26.4	4.53316
26.41	4.54237
26.42	4.54105
26.43	4.54598
26.44	4.53381
26.45	4.53085
26.46	4.52723
26.47	4.53118
26.48	4.52888
26.49	4.53348
26.5	4.52822
26.51	4.53217
26.52	4.53414
26.53	4.53348
26.54	4.53546
26.55	4.53546
26.56	4.53644
26.57	4.52855
26.58	4.52329
26.59	4.53217
26.6	4.52987
26.61	4.53612
26.62	4.5325
26.63	4.52723
26.64	4.52362
26.65	4.52658
26.66	4.53019
26.67	4.53052
26.68	4.54434
26.69	4.53151
26.7	4.53217
26.71	4.53743
26.72	4.53579
26.73	4.53743
26.74	4.52954
26.75	4.53842
26.76	4.53447
26.77	4.52362
26.78	4.53809
26.79	4.5348
26.8	4.52954
26.81	4.52954
26.82	4.54039
26.83	4.52493
26.84	4.52888
26.85	4.54467
26.86	4.54039
26.87	4.5371
26.88	4.52658
26.89	4.54401
26.9	4.5371
26.91	4.53677
26.92	4.53809
26.93	4.52658
26.94	4.53118
26.95	4.53743
26.96	4.53151
26.97	4.53085
26.98	4.53677
26.99	4.53348
27	4.53776
27.01	4.53085
27.02	4.53348
27.03	4.53809
27.04	4.5496
27.05	4.53875
27.06	4.52658
27.07	4.5348
27.08	4.52888
27.09	4.5348
27.1	4.52888
27.11	4.52756
27.12	4.53085
27.13	4.5325
27.14	4.53118
27.15	4.52625
27.16	4.53184
27.17	4.52888
27.18	4.54039
27.19	4.53677
27.2	4.52789
27.21	4.52691
27.22	4.52789
27.23	4.5223
27.24	4.52691
27.25	4.52526
27.26	4.51309
27.27	4.52822
27.28	4.53776
27.29	4.52625
27.3	4.5223
27.31	4.52987
27.32	4.52625
27.33	4.52131
27.34	4.52691
27.35	4.52855
27.36	4.52493
27.37	4.52493
27.38	4.52131
27.39	4.53151
27.4	4.53546
27.41	4.52526
27.42	4.52592
27.43	4.52197
27.44	4.52559
27.45	4.52921
27.46	4.52789
27.47	4.53743
27.48	4.52756
27.49	4.5246
27.5	4.52098
27.51	4.53414
27.52	4.52394
27.53	4.51638
27.54	4.52329
27.55	4.52954
27.56	4.54171
27.57	4.52987
27.58	4.53283
27.59	4.53908
27.6	4.5348
27.61	4.52197
27.62	4.52065
27.63	4.52329
27.64	4.52691
27.65	4.52625
27.66	4.52592
27.67	4.53217
27.68	4.52493
27.69	4.52592
27.7	4.52526
27.71	4.52921
27.72	4.52954
27.73	4.53085
27.74	4.52592
27.75	4.53348
27.76	4.52263
27.77	4.52098
27.78	4.52822
27.79	4.52756
27.8	4.52065
27.81	4.52263
27.82	4.51967
27.83	4.52691
27.84	4.53513
27.85	4.5348
27.86	4.51737
27.87	4.52526
27.88	4.52394
27.89	4.52296
27.9	4.5246
27.91	4.52033
27.92	4.52723
27.93	4.52362
27.94	4.5223
27.95	4.52723
27.96	4.53283
27.97	4.52493
27.98	4.5223
27.99	4.52033
28	4.52065
28.01	4.5223
28.02	4.52954
28.03	4.52789
28.04	4.52822
28.05	4.52822
28.06	4.52921
28.07	4.52296
28.08	4.53019
28.09	4.53447
28.1	4.53316
28.11	4.53316
28.12	4.53118
28.13	4.53546
28.14	4.53085
28.15	4.53941
28.16	4.5325
28.17	4.5246
28.18	4.53118
28.19	4.51868
28.2	4.51868
28.21	4.52
28.22	4.52
28.23	4.52987
28.24	4.52987
28.25	4.52098
28.26	4.52
28.27	4.51868
28.28	4.51013
28.29	4.52098
28.3	4.52822
28.31	4.51835
28.32	4.52296
28.33	4.5246
28.34	4.52855
28.35	4.52559
28.36	4.52296
28.37	4.51901
28.38	4.52098
28.39	4.52789
28.4	4.52394
28.41	4.53414
28.42	4.52888
28.43	4.53085
28.44	4.51934
28.45	4.52427
28.46	4.52329
28.47	4.52888
28.48	4.52493
28.49	4.53842
28.5	4.52888
28.51	4.52164
28.52	4.53908
28.53	4.52362
28.54	4.52954
28.55	4.52329
28.56	4.51539
28.57	4.52296
28.58	4.52394
28.59	4.54072
28.6	4.53052
28.61	4.53677
28.62	4.52921
28.63	4.53316
28.64	4.53052
28.65	4.52526
28.66	4.51868
28.67	4.52592
28.68	4.52559
28.69	4.52691
28.7	4.51737
28.71	4.52098
28.72	4.52954
28.73	4.52559
28.74	4.52592
28.75	4.52987
28.76	4.51967
28.77	4.53151
28.78	4.52921
28.79	4.51638
28.8	4.52427
28.81	4.53085
28.82	4.52888
28.83	4.52987
28.84	4.5098
28.85	4.51539
28.86	4.52296
28.87	4.51967
28.88	4.53579
28.89	4.52197
28.9	4.52394
28.91	4.53546
28.92	4.53151
28.93	4.51342
28.94	4.53151
28.95	4.53217
28.96	4.51638
28.97	4.52296
28.98	4.52296
28.99	4.51934
29	4.53184
29.01	4.52723
29.02	4.52065
29.03	4.51605
29.04	4.51967
29.05	4.52559
29.06	4.51046
29.07	4.51638
29.08	4.52625
29.09	4.52033
29.1	4.51671
29.11	4.51408
29.12	4.52756
29.13	4.52131
29.14	4.52164
29.15	4.52723
29.16	4.52822
29.17	4.5223
29.18	4.52065
29.19	4.52098
29.2	4.52723
29.21	4.52263
29.22	4.51276
29.23	4.51046
29.24	4.52033
29.25	4.52493
29.26	4.53217
29.27	4.5325
29.28	4.51967
29.29	4.52263
29.3	4.52427
29.31	4.51737
29.32	4.51802
29.33	4.52098
29.34	4.52723
29.35	4.52065
29.36	4.51408
29.37	4.52033
29.38	4.52
29.39	4.51901
29.4	4.51671
29.41	4.51572
29.42	4.52296
29.43	4.51802
29.44	4.5223
29.45	4.50585
29.46	4.52
29.47	4.52263
29.48	4.52098
29.49	4.52427
29.5	4.52559
29.51	4.52362
29.52	4.52263
29.53	4.50914
29.54	4.50585
29.55	4.50914
29.56	4.5223
29.57	4.52131
29.58	4.51868
29.59	4.52098
29.6	4.52263
29.61	4.52
29.62	4.52559
29.63	4.51769
29.64	4.51506
29.65	4.52098
29.66	4.52756
29.67	4.52
29.68	4.50947
29.69	4.51243
29.7	4.51769
29.71	4.51342
29.72	4.52033
29.73	4.51835
29.74	4.51638
29.75	4.51802
29.76	4.51638
29.77	4.52197
29.78	4.52822
29.79	4.51737
29.8	4.51342
29.81	4.51342
29.82	4.51967
29.83	4.51605
29.84	4.51112
29.85	4.51506
29.86	4.5075
29.87	4.51638
29.88	4.52
29.89	4.51901
29.9	4.51473
29.91	4.52
29.92	4.51375
29.93	4.51605
29.94	4.50585
29.95	4.5144
29.96	4.51112
29.97	4.50947
29.98	4.51473
29.99	4.52164
30	4.51046
