"BIO-KINE ASCII FILE"
"_COMMENT"	"MOS-500 Spectrometer"
"_COMMENT"	"Kinetics measurement"
"_COMMENT"	"Y Unit : Volt,  X Unit : s"
"_COMMENT"	"Excitation wavelength : 380 nm"
"_COMMENT"	"Fentes bandwidth =  1 nm"
"_COMMENT"	"HV= 1000V"
"_COMMENT"	"Timebase  1 =  .01 s   5001 pts"
"_SFM"	"SFM-400 /S  Advanced mode"
"_SFM"	"Ratio : S1: 2.5, S2: 0, S3: 0, S4: 1"
"_SFM"	"Content : S1: , S2: , S3: , S4:"
"_SFM"	"Concentration : S1: , S2: , S3: , S4:"
"_SFM"	"Total volume : 209 µl  Flow : 3.5 mL/s"
"_SFM"	"Acquisition start :  10 ms before stop"
"_SFM"	"cuve=FC-15, s1=10 ml , s2=10 ml , s3=10 ml , s4=1.9 ml"
"_UNITX"	"s"
"_UNITY"	"Volt"
"_DELTAX"	0
"_DATA"
1e-300	2.97587
0.01	2.9206
0.02	2.92981
0.03	3.00778
0.04	3.07949
0.05	3.09166
0.06	3.12291
0.07	3.13048
0.08	3.15252
0.09	3.17489
0.1	3.18114
0.11	3.18377
0.12	3.16831
0.13	3.17752
0.14	3.19693
0.15	3.20351
0.16	3.22028
0.17	3.1943
0.18	3.19726
0.19	3.19002
0.2	3.22259
0.21	3.21535
0.22	3.2114
0.23	3.24134
0.24	3.19792
0.25	3.19594
0.26	3.21634
0.27	3.20548
0.28	3.23377
0.29	3.25318
0.3	3.25351
0.31	3.24002
0.32	3.22851
0.33	3.19594
0.34	3.20943
0.35	3.2012
0.36	3.22982
0.37	3.24331
0.38	3.22324
0.39	3.23936
0.4	3.18739
0.41	3.17522
0.42	3.21831
0.43	3.21338
0.44	3.22456
0.45	3.22489
0.46	3.23147
0.47	3.22226
0.48	3.21634
0.49	3.23805
0.5	3.25779
0.51	3.24101
0.52	3.19857
0.53	3.24167
0.54	3.21568
0.55	3.19956
0.56	3.23246
0.57	3.19989
0.58	3.1887
0.59	3.22719
0.6	3.24825
0.61	3.22522
0.62	3.2443
0.63	3.22752
0.64	3.23147
0.65	3.23015
0.66	3.19824
0.67	3.1716
0.68	3.20153
0.69	3.18574
0.7	3.23542
0.71	3.19101
0.72	3.23344
0.73	3.23377
0.74	3.21765
0.75	3.17686
0.76	3.2591
0.77	3.19561
0.78	3.20022
0.79	3.19923
0.8	3.20713
0.81	3.1887
0.82	3.20482
0.83	3.20713
0.84	3.22456
0.85	3.19101
0.86	3.1966
0.87	3.18541
0.88	3.21798
0.89	3.20943
0.9	3.21239
0.91	3.19166
0.92	3.19495
0.93	3.19199
0.94	3.22851
0.95	3.19364
0.96	3.22226
0.97	3.19101
0.98	3.17818
0.99	3.18739
1	3.21864
1.01	3.19693
1.02	3.19166
1.03	3.22226
1.04	3.1943
1.05	3.19923
1.06	3.18245
1.07	3.19101
1.08	3.19561
1.09	3.20055
1.1	3.19265
1.11	3.1887
1.12	3.17982
1.13	3.20778
1.14	3.1966
1.15	3.19463
1.16	3.13804
1.17	3.16436
1.18	3.21042
1.19	3.18739
1.2	3.16601
1.21	3.15877
1.22	3.20647
1.23	3.20153
1.24	3.18574
1.25	3.21963
1.26	3.19232
1.27	3.16272
1.28	3.18081
1.29	3.19331
1.3	3.21403
1.31	3.1762
1.32	3.17949
1.33	3.17851
1.34	3.16272
1.35	3.15778
1.36	3.18805
1.37	3.21239
1.38	3.17226
1.39	3.17324
1.4	3.20877
1.41	3.19397
1.42	3.17785
1.43	3.20449
1.44	3.2239
1.45	3.21502
1.46	3.17851
1.47	3.18607
1.48	3.19134
1.49	3.18969
1.5	3.18213
1.51	3.21831
1.52	3.17949
1.53	3.17127
1.54	3.17686
1.55	3.16107
1.56	3.17785
1.57	3.16206
1.58	3.1989
1.59	3.16008
1.6	3.1466
1.61	3.18574
1.62	3.19759
1.63	3.15976
1.64	3.14923
1.65	3.14495
1.66	3.19594
1.67	3.16469
1.68	3.15351
1.69	3.15383
1.7	3.20647
1.71	3.17127
1.72	3.16699
1.73	3.14166
1.74	3.14956
1.75	3.19923
1.76	3.18213
1.77	3.15153
1.78	3.17061
1.79	3.15712
1.8	3.18574
1.81	3.19331
1.82	3.15943
1.83	3.19989
1.84	3.17489
1.85	3.18311
1.86	3.18838
1.87	3.13147
1.88	3.13772
1.89	3.15581
1.9	3.14594
1.91	3.17851
1.92	3.16041
1.93	3.17719
1.94	3.15647
1.95	3.11469
1.96	3.17752
1.97	3.18476
1.98	3.16305
1.99	3.16765
2	3.17259
2.01	3.18081
2.02	3.15318
2.03	3.14265
2.04	3.11995
2.05	3.14166
2.06	3.17028
2.07	3.18213
2.08	3.16239
2.09	3.15153
2.1	3.14758
2.11	3.17127
2.12	3.1239
2.13	3.17291
2.14	3.1489
2.15	3.17226
2.16	3.1716
2.17	3.17061
2.18	3.14791
2.19	3.16173
2.2	3.19397
2.21	3.15548
2.22	3.15252
2.23	3.16897
2.24	3.16206
2.25	3.11864
2.26	3.11271
2.27	3.13311
2.28	3.15548
2.29	3.1591
2.3	3.16535
2.31	3.14956
2.32	3.15811
2.33	3.19824
2.34	3.16831
2.35	3.14002
2.36	3.15482
2.37	3.18278
2.38	3.15416
2.39	3.16239
2.4	3.15811
2.41	3.17851
2.42	3.14462
2.43	3.16962
2.44	3.13903
2.45	3.10712
2.46	3.15614
2.47	3.16535
2.48	3.15252
2.49	3.18114
2.5	3.16403
2.51	3.18344
2.52	3.14923
2.53	3.15647
2.54	3.14462
2.55	3.13706
2.56	3.14857
2.57	3.17818
2.58	3.14133
2.59	3.12357
2.6	3.13739
2.61	3.14726
2.62	3.17061
2.63	3.16502
2.64	3.15416
2.65	3.14956
2.66	3.1239
2.67	3.15811
2.68	3.14429
2.69	3.1716
2.7	3.18673
2.71	3.17226
2.72	3.14232
2.73	3.14101
2.74	3.1693
2.75	3.15778
2.76	3.15219
2.77	3.13048
2.78	3.13837
2.79	3.14495
2.8	3.16568
2.81	3.17423
2.82	3.15712
2.83	3.15614
2.84	3.13147
2.85	3.11699
2.86	3.1035
2.87	3.15416
2.88	3.15943
2.89	3.1489
2.9	3.13969
2.91	3.15778
2.92	3.12423
2.93	3.13508
2.94	3.14857
2.95	3.14429
2.96	3.16831
2.97	3.13179
2.98	3.13114
2.99	3.14923
3	3.11831
3.01	3.10712
3.02	3.11831
3.03	3.15449
3.04	3.15055
3.05	3.13936
3.06	3.13903
3.07	3.12291
3.08	3.1114
3.09	3.1137
3.1	3.11173
3.11	3.12554
3.12	3.15745
3.13	3.11502
3.14	3.12456
3.15	3.12193
3.16	3.10416
3.17	3.13607
3.18	3.12258
3.19	3.10679
3.2	3.11864
3.21	3.13081
3.22	3.13114
3.23	3.08344
3.24	3.10975
3.25	3.13673
3.26	3.14462
3.27	3.11831
3.28	3.14002
3.29	3.17357
3.3	3.15877
3.31	3.116
3.32	3.11765
3.33	3.1216
3.34	3.13147
3.35	3.1762
3.36	3.17127
3.37	3.11831
3.38	3.1216
3.39	3.14791
3.4	3.14298
3.41	3.13903
3.42	3.15614
3.43	3.12324
3.44	3.10548
3.45	3.15318
3.46	3.12554
3.47	3.07719
3.48	3.11765
3.49	3.14364
3.5	3.1091
3.51	3.1035
3.52	3.13706
3.53	3.13344
3.54	3.14265
3.55	3.14265
3.56	3.11962
3.57	3.12752
3.58	3.14528
3.59	3.13147
3.6	3.09429
3.61	3.14594
3.62	3.14364
3.63	3.13048
3.64	3.116
3.65	3.09298
3.66	3.14035
3.67	3.1364
3.68	3.11271
3.69	3.09824
3.7	3.13903
3.71	3.11831
3.72	3.09067
3.73	3.11535
3.74	3.14397
3.75	3.1035
3.76	3.08804
3.77	3.10844
3.78	3.10745
3.79	3.14002
3.8	3.1568
3.81	3.09594
3.82	3.10318
3.83	3.14331
3.84	3.13179
3.85	3.14199
3.86	3.12686
3.87	3.11107
3.88	3.12423
3.89	3.14627
3.9	3.11041
3.91	3.11008
3.92	3.09824
3.93	3.13311
3.94	3.13772
3.95	3.14035
3.96	3.12291
3.97	3.10252
3.98	3.11074
3.99	3.10449
4	3.13179
4.01	3.13344
4.02	3.13212
4.03	3.12225
4.04	3.09692
4.05	3.11436
4.06	3.11502
4.07	3.09429
4.08	3.08015
4.09	3.08311
4.1	3.11502
4.11	3.12686
4.12	3.09857
4.13	3.07357
4.14	3.12489
4.15	3.1341
4.16	3.10745
4.17	3.1091
4.18	3.12719
4.19	3.13377
4.2	3.13443
4.21	3.12818
4.22	3.08278
4.23	3.09594
4.24	3.12719
4.25	3.11469
4.26	3.10778
4.27	3.09824
4.28	3.08212
4.29	3.08442
4.3	3.07916
4.31	3.08475
4.32	3.07949
4.33	3.10318
4.34	3.08377
4.35	3.13245
4.36	3.06929
4.37	3.10515
4.38	3.11403
4.39	3.15087
4.4	3.13212
4.41	3.12587
4.42	3.11666
4.43	3.10515
4.44	3.08278
4.45	3.08048
4.46	3.14331
4.47	3.11798
4.48	3.08113
4.49	3.10318
4.5	3.14495
4.51	3.11535
4.52	3.09396
4.53	3.11436
4.54	3.0989
4.55	3.09364
4.56	3.0966
4.57	3.10679
4.58	3.11864
4.59	3.14397
4.6	3.11699
4.61	3.13344
4.62	3.10614
4.63	3.07785
4.64	3.08245
4.65	3.09561
4.66	3.09331
4.67	3.06633
4.68	3.08475
4.69	3.11765
4.7	3.11699
4.71	3.10614
4.72	3.09462
4.73	3.10318
4.74	3.12225
4.75	3.11271
4.76	3.09429
4.77	3.08245
4.78	3.11995
4.79	3.09758
4.8	3.07456
4.81	3.0989
4.82	3.0864
4.83	3.09002
4.84	3.11008
4.85	3.12653
4.86	3.10252
4.87	3.10054
4.88	3.10449
4.89	3.07521
4.9	3.08804
4.91	3.08936
4.92	3.11995
4.93	3.0966
4.94	3.12061
4.95	3.10646
4.96	3.09725
4.97	3.1137
4.98	3.11239
4.99	3.08541
5	3.1262
5.01	3.10712
5.02	3.0785
5.03	3.07357
5.04	3.11337
5.05	3.11666
5.06	3.10285
5.07	3.10844
5.08	3.04824
5.09	3.06337
5.1	3.0989
5.11	3.10285
5.12	3.11732
5.13	3.10416
5.14	3.08804
5.15	3.11041
5.16	3.13015
5.17	3.08541
5.18	3.06798
5.19	3.09528
5.2	3.12719
5.21	3.08804
5.22	3.08442
5.23	3.05646
5.24	3.11568
5.25	3.09331
5.26	3.12193
5.27	3.07258
5.28	3.08048
5.29	3.08804
5.3	3.09166
5.31	3.07094
5.32	3.09166
5.33	3.08969
5.34	3.05186
5.35	3.07521
5.36	3.10877
5.37	3.08048
5.38	3.07916
5.39	3.08179
5.4	3.06831
5.41	3.08212
5.42	3.10548
5.43	3.10153
5.44	3.0716
5.45	3.09528
5.46	3.07094
5.47	3.0785
5.48	3.05778
5.49	3.04133
5.5	3.06436
5.51	3.06896
5.52	3.09166
5.53	3.066
5.54	3.09364
5.55	3.07357
5.56	3.06896
5.57	3.0387
5.58	3.07686
5.59	3.10614
5.6	3.08212
5.61	3.0614
5.62	3.07653
5.63	3.08574
5.64	3.05416
5.65	3.06271
5.66	3.06995
5.67	3.08541
5.68	3.07719
5.69	3.06008
5.7	3.07324
5.71	3.08146
5.72	3.07752
5.73	3.09627
5.74	3.06765
5.75	3.05021
5.76	3.06666
5.77	3.07554
5.78	3.08015
5.79	3.06074
5.8	3.05646
5.81	3.08081
5.82	3.05054
5.83	3.05054
5.84	3.03804
5.85	3.06173
5.86	3.066
5.87	3.04857
5.88	3.07324
5.89	3.08574
5.9	3.07554
5.91	3.06995
5.92	3.06798
5.93	3.07357
5.94	3.07916
5.95	3.0614
5.96	3.02455
5.97	3.03673
5.98	3.0535
5.99	3.10054
6	3.09462
6.01	3.08508
6.02	3.06304
6.03	3.07982
6.04	3.0887
6.05	3.09331
6.06	3.10219
6.07	3.05482
6.08	3.07456
6.09	3.07357
6.1	3.03903
6.11	3.06962
6.12	3.05679
6.13	3.0285
6.14	3.04002
6.15	3.05087
6.16	3.07982
6.17	3.10285
6.18	3.04265
6.19	3.04495
6.2	3.05449
6.21	3.08936
6.22	3.05844
6.23	3.08673
6.24	3.0739
6.25	3.09067
6.26	3.06896
6.27	3.0716
6.28	3.06041
6.29	3.04923
6.3	3.06962
6.31	3.07686
6.32	3.06337
6.33	3.04692
6.34	3.06107
6.35	3.06699
6.36	3.10548
6.37	3.06008
6.38	3.05087
6.39	3.05548
6.4	3.05054
6.41	3.05219
6.42	3.05054
6.43	3.0614
6.44	3.06567
6.45	3.04265
6.46	3.08739
6.47	3.06929
6.48	3.05613
6.49	3.04495
6.5	3.02949
6.51	3.07423
6.52	3.06534
6.53	3.08442
6.54	3.09758
6.55	3.04002
6.56	3.04002
6.57	3.07291
6.58	3.08607
6.59	3.0762
6.6	3.08212
6.61	3.04857
6.62	3.05284
6.63	3.10021
6.64	3.06995
6.65	3.04462
6.66	3.05778
6.67	3.04462
6.68	3.0614
6.69	3.04955
6.7	3.04298
6.71	3.04002
6.72	3.066
6.73	3.04561
6.74	3.06436
6.75	3.03015
6.76	3.05482
6.77	3.05745
6.78	3.08541
6.79	3.07423
6.8	3.04988
6.81	3.05284
6.82	3.05581
6.83	3.07554
6.84	3.05745
6.85	3.06469
6.86	3.05219
6.87	3.04002
6.88	3.0637
6.89	3.03771
6.9	3.03015
6.91	3.02982
6.92	3.0285
6.93	3.041
6.94	3.05219
6.95	3.0535
6.96	3.05909
6.97	3.06633
6.98	3.06831
6.99	3.06173
7	3.03903
7.01	3.05482
7.02	3.04396
7.03	3.03903
7.04	3.04857
7.05	3.06403
7.06	3.04594
7.07	3.07916
7.08	3.07094
7.09	3.05515
7.1	3.07061
7.11	3.04791
7.12	3.01765
7.13	3.02455
7.14	3.05449
7.15	3.0512
7.16	3.04758
7.17	3.02126
7.18	3.04133
7.19	3.04232
7.2	3.06469
7.21	3.03607
7.22	3.01699
7.23	3.04824
7.24	3.08344
7.25	3.06074
7.26	3.01666
7.27	3.03607
7.28	3.05252
7.29	3.07094
7.3	3.05482
7.31	3.05712
7.32	3.02159
7.33	3.04561
7.34	3.06863
7.35	3.05186
7.36	3.07752
7.37	3.04528
7.38	3.06403
7.39	3.0364
7.4	3.03311
7.41	3.03738
7.42	3.05712
7.43	3.03771
7.44	3.06436
7.45	3.04199
7.46	3.03344
7.47	3.07127
7.48	3.05581
7.49	3.06436
7.5	3.02883
7.51	3.03048
7.52	3.04429
7.53	3.02817
7.54	3.02324
7.55	3.03607
7.56	3.03936
7.57	3.05054
7.58	3.03936
7.59	3.05317
7.6	3.04923
7.61	3.03048
7.62	3.04923
7.63	3.05581
7.64	3.05712
7.65	3.03969
7.66	3.04067
7.67	3.02554
7.68	3.0183
7.69	3.02357
7.7	3.03409
7.71	3.06765
7.72	3.02455
7.73	3.01403
7.74	3.0285
7.75	3.03837
7.76	3.04002
7.77	3.05021
7.78	3.04199
7.79	3.06403
7.8	3.0387
7.81	3.02686
7.82	3.04594
7.83	3.05219
7.84	3.03376
7.85	3.04988
7.86	3.05087
7.87	3.05087
7.88	3.06469
7.89	3.05449
7.9	3.0614
7.91	3.01765
7.92	3.03771
7.93	3.00909
7.94	3.04824
7.95	3.03771
7.96	3.04627
7.97	3.03015
7.98	3.03607
7.99	3.03936
8	3.06041
8.01	3.0512
8.02	3.0535
8.03	3.01995
8.04	3.02225
8.05	3.0614
8.06	3.08804
8.07	3.03311
8.08	3.03936
8.09	3.05087
8.1	3.04659
8.11	3.016
8.12	3.04758
8.13	3.05219
8.14	3.02291
8.15	3.01469
8.16	3.01929
8.17	3.0535
8.18	3.0387
8.19	3.0512
8.2	3.066
8.21	3.06403
8.22	3.01567
8.23	3.00383
8.24	3.01699
8.25	3.06699
8.26	3.06041
8.27	3.07488
8.28	3.06271
8.29	3.04265
8.3	3.04462
8.31	3.0262
8.32	3.03607
8.33	3.0433
8.34	3.03738
8.35	3.03607
8.36	3.0239
8.37	3.03607
8.38	3.04462
8.39	3.04627
8.4	3.02061
8.41	2.99528
8.42	3.02982
8.43	2.99857
8.44	3.02291
8.45	3.0364
8.46	3.02719
8.47	3.02949
8.48	3.01567
8.49	3.04199
8.5	3.03179
8.51	3.01863
8.52	3.02653
8.53	3.02916
8.54	3.05646
8.55	3.0433
8.56	2.99363
8.57	3.00679
8.58	3.04396
8.59	3.01008
8.6	2.98541
8.61	2.99034
8.62	3.02159
8.63	2.9989
8.64	3.01765
8.65	3.04692
8.66	3.01699
8.67	3.02784
8.68	2.99396
8.69	3.01863
8.7	3.02554
8.71	3.03146
8.72	3.04002
8.73	3.02357
8.74	2.99528
8.75	2.98014
8.76	2.99429
8.77	3.00942
8.78	3.01172
8.79	3.01699
8.8	3.01633
8.81	3.01699
8.82	2.99495
8.83	3.016
8.84	3.06238
8.85	3.03245
8.86	3.03738
8.87	3.05581
8.88	3.02686
8.89	3.04857
8.9	3.03771
8.91	3.0489
8.92	3.02587
8.93	3.05317
8.94	3.04265
8.95	3.00613
8.96	3.03212
8.97	3.03936
8.98	3.00186
8.99	3.04429
9	3.01501
9.01	3.01304
9.02	3.01436
9.03	3.01403
9.04	3.03344
9.05	3.03344
9.06	3.02949
9.07	3.02028
9.08	2.97817
9.09	2.99922
9.1	3.00942
9.11	3.0183
9.12	3.02225
9.13	2.99232
9.14	3.00449
9.15	3.03146
9.16	3.02784
9.17	3.04133
9.18	3.03278
9.19	3.03903
9.2	3.01205
9.21	3.01304
9.22	3.02324
9.23	3.03015
9.24	3.07258
9.25	3.04692
9.26	3.01666
9.27	3.03409
9.28	3.01666
9.29	3.05712
9.3	3.0308
9.31	3.00482
9.32	3.02521
9.33	3.00646
9.34	3.03179
9.35	3.01172
9.36	3.03344
9.37	3.01699
9.38	2.99988
9.39	2.99265
9.4	3.01699
9.41	3.01732
9.42	3.016
9.43	3.02028
9.44	3.01074
9.45	3.01501
9.46	3.01962
9.47	3.04396
9.48	3.00876
9.49	2.99396
9.5	2.99988
9.51	3.0433
9.52	3.05909
9.53	3.02554
9.54	3.00811
9.55	3.02357
9.56	3.02061
9.57	3.02159
9.58	3.00021
9.59	2.98278
9.6	3.01271
9.61	3.01436
9.62	3.01633
9.63	2.99791
9.64	3.00087
9.65	2.97225
9.66	2.9864
9.67	3.01271
9.68	3.01863
9.69	3.04396
9.7	3.02653
9.71	3.00547
9.72	3.00942
9.73	3.02028
9.74	3.03508
9.75	3.03442
9.76	3.03278
9.77	3.02686
9.78	2.9989
9.79	3.01436
9.8	3.03837
9.81	3.03409
9.82	2.9989
9.83	3.00087
9.84	3.00021
9.85	2.99265
9.86	3.0262
9.87	3.02949
9.88	3.02225
9.89	3.03607
9.9	3.01732
9.91	3.01238
9.92	3.02817
9.93	3.00449
9.94	2.99265
9.95	2.97159
9.96	2.99824
9.97	3.00975
9.98	3.0058
9.99	3.01501
10	3.03837
10.01	2.99626
10.02	3.01008
10.03	3.00778
10.04	2.99265
10.05	2.98771
10.06	2.97028
10.07	3.02291
10.08	2.98804
10.09	2.98936
10.1	2.99857
10.11	2.99199
10.12	3.01896
10.13	2.99824
10.14	3.01172
10.15	3.01107
10.16	3.03804
10.17	3.00219
10.18	2.99462
10.19	2.97718
10.2	2.98245
10.21	3.02455
10.22	2.9933
10.23	2.99232
10.24	3.00383
10.25	3.02423
10.26	2.98771
10.27	3.01567
10.28	2.97028
10.29	3.00646
10.3	3.02751
10.31	3.01501
10.32	3.04265
10.33	3.02028
10.34	2.99824
10.35	3.02192
10.36	3.01403
10.37	3.02225
10.38	3.00778
10.39	2.9864
10.4	3.01567
10.41	2.99824
10.42	3.01798
10.43	3.00087
10.44	3.00186
10.45	3.02817
10.46	3.0285
10.47	3.01962
10.48	3.00087
10.49	3.01107
10.5	3.00515
10.51	3.02719
10.52	2.97751
10.53	2.97455
10.54	3.02159
10.55	3.00778
10.56	2.98376
10.57	3.00679
10.58	3.02028
10.59	3.02587
10.6	3.0183
10.61	3.01271
10.62	2.97389
10.63	2.99561
10.64	2.99133
10.65	3.00547
10.66	2.99659
10.67	3.04265
10.68	3.00317
10.69	3.00547
10.7	3.02357
10.71	2.99297
10.72	2.99297
10.73	3.00383
10.74	3.01501
10.75	3.01567
10.76	3.00679
10.77	3.00219
10.78	3.00942
10.79	2.97751
10.8	2.96337
10.81	2.99265
10.82	2.9887
10.83	2.98442
10.84	2.97061
10.85	3.00383
10.86	3.00745
10.87	2.97949
10.88	2.97883
10.89	2.99462
10.9	2.98376
10.91	3.00219
10.92	2.99857
10.93	3.00876
10.94	2.97916
10.95	2.99363
10.96	2.98409
10.97	3.01666
10.98	3.01732
10.99	2.99922
11	2.99626
11.01	3.01633
11.02	2.99955
11.03	3.00712
11.04	2.98047
11.05	2.98212
11.06	2.99922
11.07	3.00515
11.08	3.02094
11.09	3.00251
11.1	3.03179
11.11	2.98936
11.12	3.00219
11.13	2.98146
11.14	2.97916
11.15	2.99265
11.16	2.96567
11.17	2.99528
11.18	3.02916
11.19	2.98968
11.2	2.97653
11.21	2.9864
11.22	3.00613
11.23	2.95975
11.24	2.99626
11.25	3.0114
11.26	2.96896
11.27	2.98278
11.28	3.0137
11.29	3.01666
11.3	2.98113
11.31	2.96896
11.32	2.98574
11.33	3.00778
11.34	2.98508
11.35	2.99363
11.36	3.01534
11.37	3.03311
11.38	2.99561
11.39	3.00909
11.4	2.97521
11.41	2.96929
11.42	3.00186
11.43	2.98179
11.44	2.96962
11.45	2.96501
11.46	2.98278
11.47	2.99824
11.48	3.0239
11.49	3.02455
11.5	3.00087
11.51	2.97587
11.52	2.97258
11.53	2.99034
11.54	2.97554
11.55	3.03607
11.56	3.01567
11.57	3.01962
11.58	2.96633
11.59	2.94922
11.6	2.99725
11.61	2.96139
11.62	2.95416
11.63	2.99824
11.64	3.0262
11.65	3.00778
11.66	3.02554
11.67	3.02357
11.68	2.99791
11.69	2.96797
11.7	2.96666
11.71	3.00745
11.72	2.99824
11.73	2.98936
11.74	2.98541
11.75	2.97982
11.76	3.0035
11.77	3.01337
11.78	2.99988
11.79	2.97587
11.8	2.98376
11.81	3.00909
11.82	2.991
11.83	2.97883
11.84	3.00021
11.85	2.99725
11.86	2.99758
11.87	2.97093
11.88	2.95514
11.89	2.97422
11.9	2.98508
11.91	3.01041
11.92	3.0012
11.93	2.98343
11.94	2.99824
11.95	2.99593
11.96	3.016
11.97	3.00547
11.98	3.01469
11.99	3.00153
12	2.99363
12.01	3.00679
12.02	3.00646
12.03	2.99659
12.04	2.96271
12.05	2.97817
12.06	3.00449
12.07	3.00449
12.08	3.00712
12.09	2.98278
12.1	2.99692
12.11	3.01304
12.12	2.98014
12.13	2.99955
12.14	2.99396
12.15	2.99462
12.16	2.99758
12.17	3.00284
12.18	2.9762
12.19	2.99955
12.2	3.00021
12.21	3.02817
12.22	2.98508
12.23	2.98771
12.24	2.9808
12.25	2.95547
12.26	2.99758
12.27	3.01469
12.28	2.97949
12.29	3.02653
12.3	3.01699
12.31	2.98409
12.32	2.9683
12.33	2.98442
12.34	2.98804
12.35	3.00613
12.36	2.97291
12.37	2.97949
12.38	2.99528
12.39	2.98508
12.4	2.98014
12.41	2.98245
12.42	2.95185
12.43	2.95383
12.44	2.99067
12.45	2.96764
12.46	2.95942
12.47	2.96863
12.48	2.98936
12.49	2.98146
12.5	2.99199
12.51	3.00547
12.52	2.99363
12.53	2.98508
12.54	3.01896
12.55	2.98442
12.56	2.99429
12.57	2.95975
12.58	2.97389
12.59	2.99791
12.6	3.02291
12.61	3.00219
12.62	2.99561
12.63	3.01271
12.64	3.01995
12.65	3.02159
12.66	2.99791
12.67	3.00844
12.68	3.00251
12.69	2.99593
12.7	2.96732
12.71	2.99462
12.72	2.96962
12.73	2.99067
12.74	2.99462
12.75	3.00679
12.76	2.99659
12.77	2.97258
12.78	2.97686
12.79	2.99824
12.8	2.98146
12.81	3.00844
12.82	3.01436
12.83	2.99462
12.84	2.95482
12.85	2.96633
12.86	2.98705
12.87	2.98311
12.88	2.97653
12.89	2.96074
12.9	3.00712
12.91	2.98113
12.92	2.97389
12.93	2.96896
12.94	3.00515
12.95	2.99265
12.96	2.97751
12.97	3.0035
12.98	3.00317
12.99	2.96567
13	2.99692
13.01	2.95514
13.02	2.96403
13.03	2.94955
13.04	2.96501
13.05	3.02916
13.06	2.98607
13.07	2.99988
13.08	2.97521
13.09	2.95185
13.1	2.97357
13.11	2.95449
13.12	2.98212
13.13	2.93903
13.14	2.98113
13.15	2.99692
13.16	2.96863
13.17	2.99824
13.18	2.98936
13.19	2.96403
13.2	2.96534
13.21	2.98047
13.22	2.95942
13.23	2.97982
13.24	3.01666
13.25	2.96172
13.26	2.95778
13.27	2.99561
13.28	2.98146
13.29	2.97521
13.3	2.99659
13.31	2.98771
13.32	2.96468
13.33	2.98738
13.34	2.99034
13.35	3.00811
13.36	3.00284
13.37	2.99166
13.38	2.99462
13.39	2.9864
13.4	2.97784
13.41	2.98508
13.42	2.95975
13.43	2.96896
13.44	2.96403
13.45	2.96403
13.46	2.98179
13.47	2.96501
13.48	2.99462
13.49	2.98376
13.5	2.94297
13.51	2.95153
13.52	2.9535
13.53	2.97751
13.54	2.98475
13.55	2.98672
13.56	2.94856
13.57	2.96271
13.58	2.98837
13.59	2.98771
13.6	2.97653
13.61	2.98574
13.62	2.98212
13.63	2.97982
13.64	2.98705
13.65	3.00811
13.66	2.96896
13.67	3.01995
13.68	2.98047
13.69	2.95745
13.7	2.96896
13.71	2.99659
13.72	2.96732
13.73	3.00844
13.74	3.0012
13.75	3.00975
13.76	2.96403
13.77	2.95514
13.78	2.98936
13.79	2.97751
13.8	2.98376
13.81	2.96633
13.82	2.95942
13.83	2.97521
13.84	2.93738
13.85	2.9535
13.86	2.96567
13.87	2.97324
13.88	3.03015
13.89	3.01205
13.9	3.01041
13.91	2.96896
13.92	2.98146
13.93	3.0035
13.94	2.96139
13.95	2.94363
13.96	2.98278
13.97	2.96074
13.98	2.98442
13.99	2.99659
14	2.99561
14.01	2.98047
14.02	2.98409
14.03	2.98113
14.04	2.95383
14.05	2.97982
14.06	2.96534
14.07	2.95054
14.08	2.96107
14.09	2.98804
14.1	3.0012
14.11	2.98804
14.12	3.00087
14.13	2.98278
14.14	2.99265
14.15	2.95909
14.16	2.98837
14.17	2.98705
14.18	2.97225
14.19	2.94495
14.2	2.94528
14.21	2.99955
14.22	2.97324
14.23	2.97521
14.24	2.95416
14.25	2.97488
14.26	2.96896
14.27	2.94824
14.28	2.97653
14.29	2.97159
14.3	2.99265
14.31	2.98179
14.32	2.95317
14.33	2.96271
14.34	2.966
14.35	2.99429
14.36	3.01238
14.37	2.96435
14.38	2.94626
14.39	2.9808
14.4	3.00679
14.41	2.98804
14.42	2.96534
14.43	2.98672
14.44	2.97258
14.45	2.97389
14.46	2.98442
14.47	2.97159
14.48	2.94922
14.49	2.95449
14.5	2.97718
14.51	3.00876
14.52	2.94856
14.53	2.99199
14.54	2.99758
14.55	3.00515
14.56	2.97225
14.57	2.97817
14.58	2.99725
14.59	2.96403
14.6	2.96139
14.61	3.00482
14.62	2.966
14.63	2.98968
14.64	2.96995
14.65	2.96534
14.66	2.9581
14.67	2.94297
14.68	2.95876
14.69	2.96797
14.7	2.95843
14.71	2.97291
14.72	2.96107
14.73	2.99297
14.74	2.97982
14.75	2.9535
14.76	2.99955
14.77	3.00449
14.78	2.9887
14.79	2.94659
14.8	2.98245
14.81	2.98738
14.82	2.98442
14.83	2.95547
14.84	2.96995
14.85	2.99232
14.86	2.99363
14.87	2.95679
14.88	2.97389
14.89	2.9637
14.9	2.98936
14.91	2.97554
14.92	2.97291
14.93	2.94791
14.94	2.96501
14.95	2.95185
14.96	2.95218
14.97	2.97916
14.98	2.99593
14.99	2.97982
15	2.98672
15.01	2.93475
15.02	2.96764
15.03	2.97324
15.04	2.95843
15.05	2.98047
15.06	2.98705
15.07	3.02291
15.08	2.98607
15.09	2.96699
15.1	2.97653
15.11	2.98607
15.12	2.966
15.13	2.96403
15.14	2.94363
15.15	2.97389
15.16	2.97061
15.17	2.96896
15.18	2.98607
15.19	2.98409
15.2	2.9558
15.21	2.98541
15.22	2.96797
15.23	2.94166
15.24	2.94758
15.25	2.96041
15.26	2.97653
15.27	2.98146
15.28	2.98409
15.29	2.96534
15.3	2.96567
15.31	2.9683
15.32	2.97916
15.33	2.95185
15.34	2.98047
15.35	2.96863
15.36	2.97093
15.37	2.9535
15.38	2.97028
15.39	2.99626
15.4	2.98409
15.41	2.95416
15.42	2.97389
15.43	2.95153
15.44	2.96271
15.45	2.96797
15.46	2.95646
15.47	2.9637
15.48	2.95514
15.49	2.97751
15.5	2.96699
15.51	2.98475
15.52	2.95843
15.53	2.98936
15.54	2.99363
15.55	2.98343
15.56	2.96238
15.57	2.98311
15.58	2.97028
15.59	2.97357
15.6	2.97718
15.61	2.99791
15.62	2.99988
15.63	2.96468
15.64	2.94001
15.65	2.98146
15.66	2.96633
15.67	2.97488
15.68	2.98047
15.69	2.96534
15.7	2.98047
15.71	3.0012
15.72	2.96435
15.73	2.95745
15.74	2.96403
15.75	2.98113
15.76	2.98047
15.77	2.9558
15.78	2.9989
15.79	2.98475
15.8	3.0035
15.81	3.00219
15.82	2.9933
15.83	2.97751
15.84	2.93212
15.85	2.95218
15.86	2.991
15.87	2.98738
15.88	2.96435
15.89	2.97389
15.9	2.98771
15.91	2.96468
15.92	2.96139
15.93	2.95778
15.94	2.96172
15.95	2.95646
15.96	2.93837
15.97	2.96699
15.98	2.97225
15.99	2.96633
16	2.97521
16.01	2.98837
16.02	2.96929
16.03	2.9581
16.04	2.96764
16.05	2.94824
16.06	2.95975
16.07	2.98376
16.08	2.97291
16.09	2.92324
16.1	2.94297
16.11	2.96041
16.12	2.98376
16.13	2.97718
16.14	2.94692
16.15	2.93014
16.16	2.96699
16.17	2.94001
16.18	2.96797
16.19	2.99462
16.2	2.99199
16.21	2.95975
16.22	2.95909
16.23	2.97389
16.24	2.97686
16.25	2.96929
16.26	2.96863
16.27	2.98771
16.28	2.99166
16.29	2.95646
16.3	2.9535
16.31	2.96995
16.32	2.99429
16.33	3.00909
16.34	2.96764
16.35	2.97883
16.36	2.99232
16.37	2.98311
16.38	2.9535
16.39	2.95909
16.4	2.97817
16.41	2.94429
16.42	2.95975
16.43	2.98837
16.44	3.00317
16.45	2.98278
16.46	2.966
16.47	2.97554
16.48	2.9683
16.49	2.96567
16.5	2.95449
16.51	2.96633
16.52	2.9887
16.53	3.00745
16.54	2.99363
16.55	2.99265
16.56	2.94626
16.57	2.98146
16.58	3.00712
16.59	2.99067
16.6	2.9512
16.61	2.97061
16.62	2.94363
16.63	2.98508
16.64	2.97488
16.65	2.97916
16.66	3.01436
16.67	2.96732
16.68	2.94264
16.69	2.95646
16.7	2.97028
16.71	2.95975
16.72	2.95712
16.73	2.95317
16.74	2.9683
16.75	2.97554
16.76	2.97554
16.77	2.9558
16.78	2.95712
16.79	2.96995
16.8	2.97751
16.81	2.95712
16.82	2.97653
16.83	2.98245
16.84	2.95745
16.85	2.94791
16.86	2.98047
16.87	2.94034
16.88	2.94824
16.89	2.99396
16.9	3.01469
16.91	2.96205
16.92	2.94824
16.93	2.94824
16.94	2.98376
16.95	2.98376
16.96	2.93935
16.97	2.98804
16.98	2.98442
16.99	2.92949
17	2.9331
17.01	2.94824
17.02	2.94725
17.03	2.92817
17.04	2.93245
17.05	2.96764
17.06	2.95087
17.07	2.93376
17.08	2.97357
17.09	2.95876
17.1	2.96008
17.11	2.96435
17.12	2.96337
17.13	2.97554
17.14	2.95251
17.15	2.95843
17.16	2.96896
17.17	2.96567
17.18	2.9433
17.19	2.98146
17.2	2.93804
17.21	2.95383
17.22	2.93574
17.23	2.96764
17.24	2.99297
17.25	2.96666
17.26	2.94363
17.27	2.9637
17.28	2.98508
17.29	2.96172
17.3	2.97751
17.31	2.97521
17.32	3.00515
17.33	2.96468
17.34	2.93837
17.35	2.94758
17.36	2.93935
17.37	2.95251
17.38	2.96403
17.39	2.95679
17.4	2.97093
17.41	2.98113
17.42	2.98047
17.43	2.95087
17.44	2.9331
17.45	2.95449
17.46	2.94626
17.47	2.95745
17.48	2.94725
17.49	2.94922
17.5	2.94462
17.51	2.95416
17.52	2.98409
17.53	2.95054
17.54	2.95218
17.55	2.95153
17.56	2.96403
17.57	2.96008
17.58	2.97784
17.59	2.96534
17.6	2.9456
17.61	2.94231
17.62	2.93738
17.63	2.97916
17.64	2.97422
17.65	2.98014
17.66	2.95021
17.67	2.95383
17.68	2.95185
17.69	2.96271
17.7	2.97784
17.71	2.96041
17.72	2.96534
17.73	2.95942
17.74	2.9785
17.75	2.97126
17.76	2.97093
17.77	3.01238
17.78	2.98771
17.79	2.93672
17.8	2.94297
17.81	2.98968
17.82	2.96107
17.83	2.96764
17.84	2.97291
17.85	2.96139
17.86	2.94593
17.87	2.95745
17.88	2.96764
17.89	2.966
17.9	2.9512
17.91	2.93574
17.92	2.97028
17.93	3.00942
17.94	2.98179
17.95	2.96403
17.96	2.96797
17.97	2.9433
17.98	2.92389
17.99	2.93935
18	2.9456
18.01	2.95251
18.02	2.96403
18.03	2.9637
18.04	2.97751
18.05	2.9308
18.06	2.92652
18.07	2.92784
18.08	2.9285
18.09	2.92389
18.1	2.91501
18.11	2.95054
18.12	2.95909
18.13	2.9683
18.14	2.94001
18.15	2.9535
18.16	2.97258
18.17	2.96468
18.18	2.94922
18.19	2.93047
18.2	2.96501
18.21	2.95843
18.22	2.97225
18.23	2.95054
18.24	2.9512
18.25	2.9308
18.26	2.94067
18.27	2.95153
18.28	2.94297
18.29	2.97093
18.3	2.94824
18.31	2.94791
18.32	2.97488
18.33	2.97455
18.34	2.97883
18.35	2.93014
18.36	2.94264
18.37	2.94396
18.38	2.97126
18.39	2.99922
18.4	2.95876
18.41	2.96107
18.42	2.95153
18.43	2.95185
18.44	2.97061
18.45	2.95482
18.46	2.95482
18.47	2.92751
18.48	2.94462
18.49	2.9581
18.5	2.94495
18.51	2.95021
18.52	2.96337
18.53	2.97357
18.54	2.95712
18.55	2.92126
18.56	2.96074
18.57	2.97159
18.58	2.95021
18.59	2.94758
18.6	2.9558
18.61	2.9581
18.62	2.92488
18.63	2.96172
18.64	2.93804
18.65	2.96435
18.66	2.98607
18.67	2.95087
18.68	2.93705
18.69	2.94692
18.7	2.96929
18.71	2.97521
18.72	2.92587
18.73	2.97422
18.74	2.98376
18.75	2.96008
18.76	2.95547
18.77	2.94791
18.78	2.94659
18.79	2.98245
18.8	2.9864
18.81	2.9456
18.82	2.95449
18.83	2.9581
18.84	2.94297
18.85	2.9785
18.86	2.96633
18.87	2.94199
18.88	2.96139
18.89	2.92949
18.9	2.94001
18.91	2.93771
18.92	2.941
18.93	2.93541
18.94	2.93903
18.95	2.9637
18.96	2.95942
18.97	2.95745
18.98	2.93245
18.99	2.91238
19	2.95449
19.01	2.96107
19.02	2.96107
19.03	2.9683
19.04	2.96896
19.05	2.97192
19.06	2.98179
19.07	2.9456
19.08	2.94593
19.09	2.95284
19.1	2.95153
19.11	2.966
19.12	3.00416
19.13	2.9989
19.14	2.96172
19.15	2.95416
19.16	2.95317
19.17	2.93212
19.18	2.92554
19.19	2.93935
19.2	2.94264
19.21	2.94495
19.22	2.94889
19.23	2.92883
19.24	2.96107
19.25	2.91041
19.26	2.92192
19.27	2.95185
19.28	2.93738
19.29	2.96567
19.3	2.97225
19.31	2.9512
19.32	2.9285
19.33	2.96501
19.34	2.97653
19.35	2.97028
19.36	2.96567
19.37	2.97126
19.38	2.96633
19.39	2.96929
19.4	2.97291
19.41	2.9683
19.42	2.97422
19.43	2.93705
19.44	2.93245
19.45	2.93672
19.46	2.95876
19.47	2.97028
19.48	3.00909
19.49	2.97225
19.5	2.92685
19.51	2.93738
19.52	2.9558
19.53	2.92784
19.54	2.94166
19.55	2.96633
19.56	2.9887
19.57	2.96534
19.58	2.98804
19.59	2.96732
19.6	2.94659
19.61	2.92883
19.62	2.94231
19.63	2.93672
19.64	2.97159
19.65	2.95843
19.66	2.97159
19.67	2.93705
19.68	2.9433
19.69	2.95185
19.7	2.9512
19.71	2.94824
19.72	2.96074
19.73	2.97357
19.74	2.95416
19.75	2.93606
19.76	2.96304
19.77	2.96468
19.78	2.9512
19.79	2.94659
19.8	2.95745
19.81	2.94659
19.82	2.9535
19.83	2.96468
19.84	2.95383
19.85	2.95909
19.86	2.95482
19.87	2.94955
19.88	2.94955
19.89	2.92324
19.9	2.95547
19.91	2.94659
19.92	2.94988
19.93	2.94889
19.94	2.95778
19.95	2.94001
19.96	2.92258
19.97	2.91896
19.98	2.92587
19.99	2.94133
20	2.93935
20.01	2.94001
20.02	2.97126
20.03	2.97784
20.04	2.96403
20.05	2.93738
20.06	2.93442
20.07	2.96238
20.08	2.94791
20.09	2.96764
20.1	2.93771
20.11	2.9206
20.12	2.97389
20.13	2.95021
20.14	2.95712
20.15	2.95416
20.16	2.95843
20.17	2.93738
20.18	2.95087
20.19	2.9183
20.2	2.95251
20.21	2.96929
20.22	2.94396
20.23	2.96468
20.24	2.91567
20.25	2.93705
20.26	2.93113
20.27	2.9433
20.28	2.96205
20.29	2.95514
20.3	2.99265
20.31	2.94659
20.32	2.95087
20.33	2.95021
20.34	2.96534
20.35	2.95416
20.36	2.94955
20.37	2.94824
20.38	2.91797
20.39	2.94264
20.4	2.94495
20.41	2.96764
20.42	2.94922
20.43	2.95449
20.44	2.94363
20.45	2.95251
20.46	2.9808
20.47	2.9512
20.48	2.95843
20.49	2.96501
20.5	2.94626
20.51	2.93903
20.52	2.92817
20.53	2.92751
20.54	2.95185
20.55	2.93968
20.56	2.91764
20.57	2.94692
20.58	2.93541
20.59	2.93639
20.6	2.95679
20.61	2.97455
20.62	2.94297
20.63	2.96633
20.64	2.92324
20.65	2.9581
20.66	2.94889
20.67	2.96304
20.68	2.9808
20.69	2.96008
20.7	2.96732
20.71	2.96501
20.72	2.97291
20.73	2.95679
20.74	2.9637
20.75	2.94626
20.76	2.94133
20.77	2.94067
20.78	2.95547
20.79	2.94725
20.8	2.91633
20.81	2.92587
20.82	2.96699
20.83	2.95712
20.84	2.95745
20.85	2.96666
20.86	2.98705
20.87	2.9387
20.88	2.91041
20.89	2.94659
20.9	2.9887
20.91	2.97291
20.92	2.94133
20.93	2.93245
20.94	2.92324
20.95	2.9433
20.96	2.99199
20.97	2.94429
20.98	2.90712
20.99	2.93212
21	2.93541
21.01	2.95054
21.02	2.94462
21.03	2.96304
21.04	2.95284
21.05	2.93639
21.06	2.91896
21.07	2.93212
21.08	2.97061
21.09	2.94725
21.1	2.93376
21.11	2.93277
21.12	2.95054
21.13	2.94396
21.14	2.941
21.15	2.96633
21.16	2.93738
21.17	2.92685
21.18	2.93935
21.19	2.94659
21.2	2.94922
21.21	2.9512
21.22	2.94988
21.23	2.95021
21.24	2.97949
21.25	2.96797
21.26	2.97225
21.27	2.95054
21.28	2.90909
21.29	2.95975
21.3	2.96962
21.31	2.966
21.32	2.90547
21.33	2.941
21.34	2.92126
21.35	2.90712
21.36	2.9512
21.37	2.97817
21.38	2.96435
21.39	2.94133
21.4	2.91929
21.41	2.94199
21.42	2.9331
21.43	2.95613
21.44	2.97389
21.45	2.96501
21.46	2.93475
21.47	2.93639
21.48	2.95185
21.49	2.94363
21.5	2.97291
21.51	3.00186
21.52	2.95284
21.53	2.97324
21.54	2.94297
21.55	2.91962
21.56	2.91106
21.57	2.94001
21.58	2.96107
21.59	2.94231
21.6	2.97488
21.61	2.94725
21.62	2.92916
21.63	2.96172
21.64	2.97291
21.65	2.97093
21.66	2.96008
21.67	2.93014
21.68	2.93935
21.69	2.94856
21.7	2.94626
21.71	2.9433
21.72	2.99692
21.73	2.94988
21.74	2.93606
21.75	2.94462
21.76	2.93014
21.77	2.9456
21.78	2.94889
21.79	2.9456
21.8	2.97093
21.81	2.93212
21.82	2.93903
21.83	2.96403
21.84	2.96896
21.85	2.92685
21.86	2.95054
21.87	2.96666
21.88	2.9581
21.89	2.91402
21.9	2.93639
21.91	2.91863
21.92	2.92916
21.93	2.97751
21.94	2.98212
21.95	2.94824
21.96	2.9581
21.97	2.93903
21.98	2.95547
21.99	2.9785
22	2.9637
22.01	2.96238
22.02	2.95449
22.03	2.92356
22.04	2.93771
22.05	2.95251
22.06	2.93903
22.07	2.92981
22.08	2.94034
22.09	2.94297
22.1	2.91435
22.11	2.96699
22.12	2.94988
22.13	2.9535
22.14	2.9456
22.15	2.93376
22.16	2.9183
22.17	2.94396
22.18	2.94725
22.19	2.93245
22.2	2.94955
22.21	2.90712
22.22	2.91008
22.23	2.93146
22.24	2.94363
22.25	2.97751
22.26	2.94988
22.27	2.94824
22.28	2.93738
22.29	2.96107
22.3	2.94955
22.31	2.93606
22.32	2.91205
22.33	2.93277
22.34	2.93771
22.35	2.92192
22.36	2.93935
22.37	2.92488
22.38	2.92093
22.39	2.92324
22.4	2.91962
22.41	2.94199
22.42	2.97982
22.43	2.93212
22.44	2.93804
22.45	2.92192
22.46	2.95021
22.47	2.95482
22.48	2.9456
22.49	2.92126
22.5	2.95087
22.51	2.91962
22.52	2.94297
22.53	2.97521
22.54	2.95482
22.55	2.94626
22.56	2.93771
22.57	2.91896
22.58	2.91468
22.59	2.92981
22.6	2.97225
22.61	2.93409
22.62	2.91139
22.63	2.95547
22.64	2.94264
22.65	2.9683
22.66	2.9785
22.67	2.95679
22.68	2.93541
22.69	2.96896
22.7	2.97061
22.71	2.96962
22.72	2.96172
22.73	2.96896
22.74	2.94231
22.75	2.9137
22.76	2.89166
22.77	2.92455
22.78	2.94067
22.79	2.93343
22.8	2.93113
22.81	2.93475
22.82	2.93508
22.83	2.98146
22.84	2.95876
22.85	2.92225
22.86	2.96403
22.87	2.96468
22.88	2.96041
22.89	2.9262
22.9	2.94495
22.91	2.96238
22.92	2.94429
22.93	2.94659
22.94	2.95712
22.95	2.93409
22.96	2.95514
22.97	2.97653
22.98	2.94659
22.99	2.95185
23	2.95218
23.01	2.94495
23.02	2.95087
23.03	2.94692
23.04	2.93212
23.05	2.9456
23.06	2.96139
23.07	2.94001
23.08	2.92554
23.09	2.93014
23.1	2.941
23.11	2.96962
23.12	2.92225
23.13	2.94034
23.14	2.94264
23.15	2.93574
23.16	2.96139
23.17	2.92883
23.18	2.94955
23.19	2.94001
23.2	2.90712
23.21	2.91567
23.22	2.97554
23.23	2.98607
23.24	2.94133
23.25	2.95021
23.26	2.96797
23.27	2.96962
23.28	2.97389
23.29	2.96699
23.3	2.96534
23.31	2.97061
23.32	2.94297
23.33	2.94922
23.34	2.94231
23.35	2.94133
23.36	2.93146
23.37	2.92291
23.38	2.95547
23.39	2.93574
23.4	2.94133
23.41	2.9331
23.42	2.94824
23.43	2.93837
23.44	2.97357
23.45	2.95843
23.46	2.941
23.47	2.92521
23.48	2.92784
23.49	2.96435
23.5	2.94988
23.51	2.93442
23.52	2.91995
23.53	2.92159
23.54	2.93146
23.55	2.92981
23.56	2.93277
23.57	2.94264
23.58	2.93508
23.59	2.95876
23.6	2.96534
23.61	2.9512
23.62	2.96107
23.63	2.94824
23.64	2.94264
23.65	2.93113
23.66	2.91633
23.67	2.93574
23.68	2.95449
23.69	2.90975
23.7	2.92652
23.71	2.9183
23.72	2.94231
23.73	2.93606
23.74	2.92784
23.75	2.91008
23.76	2.91501
23.77	2.96699
23.78	2.94922
23.79	2.95021
23.8	2.95087
23.81	2.94166
23.82	2.96732
23.83	2.96995
23.84	2.95284
23.85	2.9512
23.86	2.95482
23.87	2.95975
23.88	2.96403
23.89	2.94495
23.9	2.93376
23.91	2.93277
23.92	2.91797
23.93	2.9433
23.94	2.94264
23.95	2.9512
23.96	2.94429
23.97	2.94133
23.98	2.95449
23.99	2.93935
24	2.94988
24.01	2.9387
24.02	2.94396
24.03	2.94133
24.04	2.9433
24.05	2.92784
24.06	2.94692
24.07	2.93574
24.08	2.91468
24.09	2.99495
24.1	2.98376
24.11	2.92324
24.12	2.94659
24.13	2.98804
24.14	2.90843
24.15	2.90054
24.16	2.93047
24.17	2.91337
24.18	2.96172
24.19	2.95449
24.2	2.92949
24.21	2.94429
24.22	2.97192
24.23	2.94429
24.24	2.92587
24.25	2.93705
24.26	2.96107
24.27	2.94264
24.28	2.94758
24.29	2.96139
24.3	2.94495
24.31	2.92916
24.32	2.97192
24.33	2.95153
24.34	2.93014
24.35	2.96074
24.36	2.98738
24.37	2.93212
24.38	2.94495
24.39	2.93968
24.4	2.94758
24.41	2.93179
24.42	2.95251
24.43	2.93968
24.44	2.92093
24.45	2.95185
24.46	2.9331
24.47	2.95745
24.48	2.95613
24.49	2.91731
24.5	2.93639
24.51	2.95778
24.52	2.95942
24.53	2.9206
24.54	2.91205
24.55	2.93804
24.56	2.94659
24.57	2.96107
24.58	2.94067
24.59	2.91797
24.6	2.94692
24.61	2.95547
24.62	2.93935
24.63	2.94593
24.64	2.95679
24.65	2.94297
24.66	2.92192
24.67	2.94626
24.68	2.91304
24.69	2.94988
24.7	2.94166
24.71	2.91666
24.72	2.92751
24.73	2.95185
24.74	2.98047
24.75	2.98738
24.76	2.92126
24.77	2.95153
24.78	2.9308
24.79	2.93837
24.8	2.93639
24.81	2.9785
24.82	2.9387
24.83	2.96633
24.84	2.97225
24.85	2.966
24.86	2.95284
24.87	2.93442
24.88	2.92258
24.89	2.92291
24.9	2.90185
24.91	2.91797
24.92	2.92159
24.93	2.9331
24.94	2.95514
24.95	2.9456
24.96	2.95054
24.97	2.9512
24.98	2.95416
24.99	2.91797
25	2.91929
25.01	2.91633
25.02	2.94626
25.03	2.95843
25.04	2.93442
25.05	2.93179
25.06	2.93409
25.07	2.93245
25.08	2.93606
25.09	2.92422
25.1	2.94001
25.11	2.92291
25.12	2.9262
25.13	2.92027
25.14	2.97751
25.15	2.94133
25.16	2.95909
25.17	2.93508
25.18	2.94396
25.19	2.92784
25.2	2.95909
25.21	2.96995
25.22	2.93935
25.23	2.94396
25.24	2.95613
25.25	2.97258
25.26	2.96732
25.27	3.00251
25.28	3.01304
25.29	2.94659
25.3	2.96567
25.31	2.97686
25.32	2.94429
25.33	2.96896
25.34	3.01929
25.35	2.99824
25.36	2.97258
25.37	2.94429
25.38	2.94922
25.39	2.9512
25.4	2.91929
25.41	2.95942
25.42	3.00416
25.43	2.94988
25.44	2.97455
25.45	2.97324
25.46	2.98212
25.47	2.95087
25.48	2.9683
25.49	2.95547
25.5	2.96403
25.51	2.96238
25.52	2.97916
25.53	2.92455
25.54	2.9262
25.55	2.97488
25.56	2.99462
25.57	2.95679
25.58	2.95449
25.59	2.94692
25.6	2.99001
25.61	3.02061
25.62	2.99791
25.63	3.01765
25.64	3.00186
25.65	3.00087
25.66	3.00646
25.67	2.99922
25.68	2.99034
25.69	2.97093
25.7	3.01337
25.71	3.00219
25.72	2.98936
25.73	3.01008
25.74	2.97291
25.75	3.00186
25.76	2.97422
25.77	2.96074
25.78	2.97949
25.79	2.96797
25.8	2.94955
25.81	2.95942
25.82	2.96567
25.83	2.98804
25.84	2.94495
25.85	2.94363
25.86	2.94725
25.87	2.93475
25.88	2.94593
25.89	2.92652
25.9	2.9456
25.91	2.93705
25.92	2.94264
25.93	2.97488
25.94	2.95876
25.95	2.91435
25.96	2.93409
25.97	2.95185
25.98	2.9387
25.99	2.95185
26	2.94889
26.01	2.98442
26.02	2.94988
26.03	2.92455
26.04	2.94199
26.05	2.91666
26.06	2.93475
26.07	2.93442
26.08	2.94659
26.09	2.95153
26.1	2.93705
26.11	2.96435
26.12	2.93771
26.13	2.92093
26.14	2.93113
26.15	2.95087
26.16	2.96337
26.17	2.95054
26.18	2.93146
26.19	2.90021
26.2	2.88705
26.21	2.92718
26.22	2.90876
26.23	2.93179
26.24	2.94133
26.25	2.91896
26.26	2.93376
26.27	2.966
26.28	2.94166
26.29	2.9512
26.3	2.94495
26.31	2.91698
26.32	2.95185
26.33	2.9331
26.34	2.8854
26.35	2.92225
26.36	2.9308
26.37	2.90613
26.38	2.95745
26.39	2.93705
26.4	2.95185
26.41	2.96074
26.42	2.95251
26.43	2.97982
26.44	2.96764
26.45	2.95087
26.46	2.966
26.47	2.92685
26.48	2.93475
26.49	2.94297
26.5	2.94297
26.51	2.95153
26.52	2.92784
26.53	2.92258
26.54	2.95613
26.55	2.91337
26.56	2.916
26.57	2.94626
26.58	2.91172
26.59	2.93837
26.6	2.93541
26.61	2.91008
26.62	2.92027
26.63	2.94758
26.64	2.94889
26.65	2.94659
26.66	2.94528
26.67	2.96008
26.68	2.91929
26.69	2.9262
26.7	2.96633
26.71	2.95778
26.72	2.93705
26.73	2.92389
26.74	2.88606
26.75	2.91402
26.76	2.91304
26.77	2.94001
26.78	2.941
26.79	2.93541
26.8	2.93343
26.81	2.90481
26.82	2.93837
26.83	2.97883
26.84	2.93475
26.85	2.93146
26.86	2.89494
26.87	2.94231
26.88	2.94133
26.89	2.9512
26.9	2.91205
26.91	2.90021
26.92	2.94462
26.93	2.97587
26.94	2.96074
26.95	2.93409
26.96	2.92093
26.97	2.93705
26.98	2.94396
26.99	2.92258
27	2.93672
27.01	2.9433
27.02	2.90119
27.03	2.93903
27.04	2.93508
27.05	2.94659
27.06	2.93212
27.07	2.94988
27.08	2.95284
27.09	2.95778
27.1	2.94166
27.11	2.93343
27.12	2.93113
27.13	2.92356
27.14	2.93574
27.15	2.94824
27.16	2.92718
27.17	2.93179
27.18	2.93541
27.19	2.93212
27.2	2.91797
27.21	2.92718
27.22	2.92324
27.23	2.91731
27.24	2.94824
27.25	2.96107
27.26	2.93014
27.27	2.92521
27.28	2.91501
27.29	2.916
27.3	2.95778
27.31	2.90317
27.32	2.91304
27.33	2.92949
27.34	2.92784
27.35	2.90876
27.36	2.92521
27.37	2.9331
27.38	2.93705
27.39	2.98475
27.4	2.96699
27.41	2.95646
27.42	2.92652
27.43	2.93705
27.44	2.90054
27.45	2.94133
27.46	2.9183
27.47	2.93935
27.48	2.95153
27.49	2.96534
27.5	2.93343
27.51	2.97587
27.52	2.96403
27.53	2.94758
27.54	2.9331
27.55	2.97455
27.56	2.96501
27.57	2.9262
27.58	2.93935
27.59	2.92258
27.6	2.9387
27.61	2.92389
27.62	2.95613
27.63	2.92192
27.64	2.94297
27.65	2.9433
27.66	2.93113
27.67	2.95054
27.68	2.92291
27.69	2.91995
27.7	2.98179
27.71	2.98738
27.72	3.00251
27.73	3.00876
27.74	2.97784
27.75	2.9535
27.76	2.966
27.77	2.97653
27.78	2.94363
27.79	2.94166
27.8	2.97488
27.81	2.94199
27.82	2.94824
27.83	2.94626
27.84	2.93935
27.85	2.95317
27.86	2.96238
27.87	2.95021
27.88	2.95909
27.89	2.97028
27.9	2.98212
27.91	2.97291
27.92	2.97324
27.93	2.95646
27.94	2.95087
27.95	2.95876
27.96	2.94133
27.97	2.9308
27.98	2.93738
27.99	2.94133
28	2.9512
28.01	2.97291
28.02	2.9808
28.03	2.93935
28.04	2.96929
28.05	2.95843
28.06	2.95745
28.07	2.95745
28.08	2.97357
28.09	2.95317
28.1	2.95251
28.11	2.94692
28.12	2.94856
28.13	2.92291
28.14	2.98968
28.15	2.97093
28.16	2.98475
28.17	2.9456
28.18	2.93343
28.19	2.91962
28.2	2.94791
28.21	2.92981
28.22	2.96337
28.23	2.93574
28.24	2.97554
28.25	2.9683
28.26	2.95778
28.27	2.93179
28.28	2.97455
28.29	2.95251
28.3	2.96962
28.31	2.95153
28.32	2.94495
28.33	2.94396
28.34	2.9637
28.35	2.96008
28.36	2.91962
28.37	2.93146
28.38	2.93705
28.39	2.91041
28.4	2.92652
28.41	2.92192
28.42	2.94659
28.43	2.94988
28.44	2.95646
28.45	2.95646
28.46	2.94791
28.47	3.01172
28.48	2.97324
28.49	2.96863
28.5	2.97653
28.51	2.95383
28.52	2.95547
28.53	2.94166
28.54	2.95745
28.55	2.96764
28.56	2.9433
28.57	2.94626
28.58	2.92916
28.59	2.92949
28.6	2.94034
28.61	2.94791
28.62	2.966
28.63	2.92389
28.64	2.93343
28.65	2.92324
28.66	2.93212
28.67	2.93771
28.68	2.90481
28.69	2.92324
28.7	2.9637
28.71	2.93672
28.72	2.91139
28.73	2.93047
28.74	2.92521
28.75	2.92159
28.76	2.95942
28.77	2.93343
28.78	2.92784
28.79	2.9308
28.8	2.93672
28.81	2.9456
28.82	2.92718
28.83	2.966
28.84	2.91501
28.85	2.90942
28.86	2.8933
28.87	2.89988
28.88	2.91764
28.89	2.94856
28.9	2.95712
28.91	2.97653
28.92	2.95613
28.93	2.9387
28.94	2.98179
28.95	2.93179
28.96	2.93903
28.97	2.92883
28.98	2.93277
28.99	2.89922
29	2.91501
29.01	2.93804
29.02	2.941
29.03	2.93837
29.04	2.91435
29.05	2.90284
29.06	2.90843
29.07	2.9331
29.08	2.95482
29.09	2.95251
29.1	2.9581
29.11	2.95646
29.12	2.91764
29.13	2.90514
29.14	2.89988
29.15	2.92981
29.16	2.9512
29.17	2.91501
29.18	2.91106
29.19	2.94429
29.2	2.92225
29.21	2.92718
29.22	2.94199
29.23	2.94495
29.24	2.93606
29.25	2.94462
29.26	2.93409
29.27	2.94659
29.28	2.92916
29.29	2.94363
29.3	2.91797
29.31	2.94528
29.32	2.96403
29.33	2.9433
29.34	2.93804
29.35	2.91501
29.36	2.92784
29.37	2.97225
29.38	2.93442
29.39	2.91698
29.4	2.93376
29.41	2.95021
29.42	2.95613
29.43	2.93277
29.44	2.9456
29.45	2.93409
29.46	2.94659
29.47	2.92521
29.48	2.90679
29.49	2.90514
29.5	2.9262
29.51	2.93113
29.52	2.95679
29.53	2.95843
29.54	2.92291
29.55	2.93738
29.56	2.94462
29.57	2.94034
29.58	2.93771
29.59	2.92126
29.6	2.94495
29.61	2.891
29.62	2.89034
29.63	2.91402
29.64	2.91139
29.65	2.92685
29.66	2.95251
29.67	2.96962
29.68	2.94001
29.69	2.93508
29.7	2.94396
29.71	2.9308
29.72	2.9285
29.73	2.94067
29.74	2.95251
29.75	2.96534
29.76	2.95284
29.77	2.99561
29.78	2.96929
29.79	2.95185
29.8	2.92488
29.81	2.90646
29.82	2.93442
29.83	2.92192
29.84	2.95153
29.85	2.95876
29.86	2.94922
29.87	2.91501
29.88	2.92225
29.89	2.93047
29.9	2.91633
29.91	2.93574
29.92	2.95054
29.93	2.91962
29.94	2.92652
29.95	2.9183
29.96	2.93705
29.97	2.93376
29.98	2.93245
29.99	2.95679
30	2.92126
30.01	2.9387
30.02	2.93705
30.03	2.89626
30.04	2.90087
30.05	2.8808
30.06	2.93475
30.07	2.89823
30.08	2.92093
30.09	2.92324
30.1	2.93014
30.11	2.95087
30.12	2.96962
30.13	2.96764
30.14	2.95153
30.15	2.92949
30.16	2.90942
30.17	2.93541
30.18	2.96238
30.19	2.94626
30.2	2.9262
30.21	2.91238
30.22	2.91205
30.23	2.92587
30.24	2.95317
30.25	2.94067
30.26	2.89626
30.27	2.89922
30.28	2.941
30.29	2.93935
30.3	2.92258
30.31	2.96995
30.32	2.96172
30.33	2.88014
30.34	2.91205
30.35	2.89955
30.36	2.93277
30.37	2.93343
30.38	2.9308
30.39	2.96238
30.4	2.94264
30.41	2.89889
30.42	2.95745
30.43	2.97192
30.44	2.95054
30.45	2.9331
30.46	2.92291
30.47	2.91929
30.48	2.92883
30.49	2.9058
30.5	2.90021
30.51	2.92324
30.52	2.92488
30.53	2.89988
30.54	2.95284
30.55	2.93146
30.56	2.92291
30.57	2.93903
30.58	2.93672
30.59	2.97028
30.6	2.95185
30.61	2.9285
30.62	2.9387
30.63	2.93574
30.64	2.91764
30.65	2.91435
30.66	2.91929
30.67	2.9308
30.68	2.93804
30.69	2.90416
30.7	2.93606
30.71	2.90547
30.72	2.91731
30.73	2.92225
30.74	2.91106
30.75	2.93804
30.76	2.92324
30.77	2.90481
30.78	2.91073
30.79	2.94264
30.8	2.93639
30.81	2.93442
30.82	2.91731
30.83	2.89462
30.84	2.92422
30.85	2.92718
30.86	2.93212
30.87	2.9137
30.88	2.92258
30.89	2.92192
30.9	2.91106
30.91	2.96633
30.92	2.9308
30.93	2.92159
30.94	2.94034
30.95	2.92883
30.96	2.9512
30.97	2.93047
30.98	2.89988
30.99	2.91534
31	2.90942
31.01	2.90646
31.02	2.91929
31.03	2.93771
31.04	2.91929
31.05	2.9581
31.06	2.916
31.07	2.92488
31.08	2.93541
31.09	2.92883
31.1	2.9308
31.11	2.93968
31.12	2.93245
31.13	2.93179
31.14	2.94166
31.15	2.91896
31.16	2.93508
31.17	2.94166
31.18	2.91995
31.19	2.93277
31.2	2.93804
31.21	2.94626
31.22	2.94988
31.23	2.96008
31.24	2.96732
31.25	2.90119
31.26	2.90679
31.27	2.89758
31.28	2.95449
31.29	2.90777
31.3	2.91238
31.31	2.91698
31.32	2.94199
31.33	2.92751
31.34	2.93903
31.35	2.94725
31.36	2.9433
31.37	2.91041
31.38	2.91468
31.39	2.91534
31.4	2.91337
31.41	2.92949
31.42	2.92192
31.43	2.94396
31.44	2.9285
31.45	2.94692
31.46	2.91962
31.47	2.91304
31.48	2.93376
31.49	2.91633
31.5	2.93212
31.51	2.91896
31.52	2.93705
31.53	2.91666
31.54	2.91863
31.55	2.90975
31.56	2.89462
31.57	2.91271
31.58	2.92324
31.59	2.93047
31.6	2.93639
31.61	2.93343
31.62	2.90777
31.63	2.90251
31.64	2.9058
31.65	2.93245
31.66	2.93179
31.67	2.96896
31.68	2.92422
31.69	2.92027
31.7	2.95185
31.71	2.94001
31.72	2.94297
31.73	2.9456
31.74	2.92258
31.75	2.93903
31.76	2.91435
31.77	2.93442
31.78	2.91501
31.79	2.95482
31.8	2.95613
31.81	2.91172
31.82	2.9456
31.83	2.92554
31.84	2.93475
31.85	2.94462
31.86	2.92291
31.87	2.94593
31.88	2.93968
31.89	2.941
31.9	2.93903
31.91	2.93113
31.92	2.93475
31.93	2.90284
31.94	2.92685
31.95	2.92324
31.96	2.94133
31.97	2.916
31.98	2.92027
31.99	2.96863
32	2.97159
32.01	2.92258
32.02	2.92784
32.03	2.92554
32.04	2.92554
32.05	2.90383
32.06	2.9081
32.07	2.89725
32.08	2.94034
32.09	2.90843
32.1	2.90185
32.11	2.92554
32.12	2.9433
32.13	2.93705
32.14	2.91337
32.15	2.88573
32.16	2.93935
32.17	2.95153
32.18	2.92488
32.19	2.91995
32.2	2.91172
32.21	2.92455
32.22	2.93804
32.23	2.91764
32.24	2.91435
32.25	2.94264
32.26	2.94889
32.27	2.88837
32.28	2.89823
32.29	2.95317
32.3	2.94593
32.31	2.94692
32.32	2.96666
32.33	2.9308
32.34	2.96896
32.35	2.9433
32.36	2.93376
32.37	2.9081
32.38	2.92949
32.39	2.90975
32.4	2.90185
32.41	2.92455
32.42	2.89462
32.43	2.92422
32.44	2.90448
32.45	2.93968
32.46	2.95218
32.47	2.95547
32.48	2.92817
32.49	2.93409
32.5	2.92422
32.51	2.9262
32.52	2.90317
32.53	2.90416
32.54	2.92159
32.55	2.94166
32.56	2.92159
32.57	2.93837
32.58	2.91468
32.59	2.9262
32.6	2.94725
32.61	2.92455
32.62	2.88639
32.63	2.93047
32.64	2.94034
32.65	2.93606
32.66	2.91468
32.67	2.92554
32.68	2.91238
32.69	2.93409
32.7	2.89922
32.71	2.93212
32.72	2.90251
32.73	2.92356
32.74	2.92159
32.75	2.9433
32.76	2.92027
32.77	2.89462
32.78	2.90679
32.79	2.90646
32.8	2.92751
32.81	2.94462
32.82	2.9387
32.83	2.92258
32.84	2.92093
32.85	2.89856
32.86	2.9262
32.87	2.91995
32.88	2.95646
32.89	2.92916
32.9	2.89133
32.91	2.90679
32.92	2.93179
32.93	2.9387
32.94	2.89758
32.95	2.92093
32.96	2.90646
32.97	2.9137
32.98	2.92949
32.99	2.92521
33	2.88639
33.01	2.92685
33.02	2.9581
33.03	2.92126
33.04	2.88606
33.05	2.91929
33.06	2.91863
33.07	2.95185
33.08	2.95054
33.09	2.91435
33.1	2.93409
33.11	2.93179
33.12	2.95087
33.13	2.95449
33.14	2.95317
33.15	2.87883
33.16	2.89725
33.17	2.96271
33.18	2.94791
33.19	2.92751
33.2	2.916
33.21	2.94363
33.22	2.93837
33.23	2.89823
33.24	2.87554
33.25	2.93475
33.26	2.9262
33.27	2.91731
33.28	2.89922
33.29	2.93047
33.3	2.90679
33.31	2.92159
33.32	2.90152
33.33	2.93606
33.34	2.91929
33.35	2.90284
33.36	2.9262
33.37	2.90777
33.38	2.91008
33.39	2.93508
33.4	2.91797
33.41	2.93771
33.42	2.94231
33.43	2.92949
33.44	2.91304
33.45	2.94001
33.46	2.92685
33.47	2.93837
33.48	2.89396
33.49	2.94758
33.5	2.91764
33.51	2.9137
33.52	2.91435
33.53	2.9331
33.54	2.94758
33.55	2.93146
33.56	2.90317
33.57	2.9387
33.58	2.94297
33.59	2.92159
33.6	2.95185
33.61	2.91271
33.62	2.91106
33.63	2.90876
33.64	2.91764
33.65	2.91666
33.66	2.94067
33.67	2.93935
33.68	2.93903
33.69	2.9137
33.7	2.89626
33.71	2.90251
33.72	2.90185
33.73	2.941
33.74	2.92258
33.75	2.9137
33.76	2.891
33.77	2.90284
33.78	2.93113
33.79	2.9387
33.8	2.93574
33.81	2.90975
33.82	2.91896
33.83	2.94758
33.84	2.93541
33.85	2.9456
33.86	2.95482
33.87	2.91731
33.88	2.9206
33.89	2.93245
33.9	2.92587
33.91	2.91238
33.92	2.91995
33.93	2.91567
33.94	2.92356
33.95	2.90942
33.96	2.94626
33.97	2.9433
33.98	2.90383
33.99	2.90942
34	2.91139
34.01	2.92521
34.02	2.94922
34.03	2.9683
34.04	2.93738
34.05	2.93179
34.06	2.9285
34.07	2.93606
34.08	2.91567
34.09	2.90185
34.1	2.91337
34.11	2.93409
34.12	2.91863
34.13	2.93343
34.14	2.92356
34.15	2.88837
34.16	2.92422
34.17	2.91797
34.18	2.9433
34.19	2.95745
34.2	2.93804
34.21	2.90777
34.22	2.92291
34.23	2.93639
34.24	2.90547
34.25	2.95547
34.26	2.97028
34.27	2.92949
34.28	2.92916
34.29	2.90448
34.3	2.91435
34.31	2.91468
34.32	2.92027
34.33	2.95909
34.34	2.96238
34.35	2.94988
34.36	2.88639
34.37	2.92356
34.38	2.92784
34.39	2.91435
34.4	2.92817
34.41	2.9183
34.42	2.93639
34.43	2.92817
34.44	2.9387
34.45	2.91271
34.46	2.93245
34.47	2.9206
34.48	2.94133
34.49	2.93606
34.5	2.93935
34.51	2.93277
34.52	2.93606
34.53	2.92093
34.54	2.86961
34.55	2.89363
34.56	2.9081
34.57	2.92291
34.58	2.91139
34.59	2.91633
34.6	2.95087
34.61	2.93738
34.62	2.91534
34.63	2.94528
34.64	2.91468
34.65	2.90514
34.66	2.92192
34.67	2.89396
34.68	2.94199
34.69	2.9308
34.7	2.93343
34.71	2.91271
34.72	2.916
34.73	2.92455
34.74	2.93508
34.75	2.94856
34.76	2.94626
34.77	2.92027
34.78	2.92554
34.79	2.94692
34.8	2.89659
34.81	2.91337
34.82	2.93277
34.83	2.91435
34.84	2.91106
34.85	2.9387
34.86	2.94034
34.87	2.92291
34.88	2.94922
34.89	2.95778
34.9	2.9308
34.91	2.94692
34.92	2.90942
34.93	2.91271
34.94	2.94626
34.95	2.91863
34.96	2.92225
34.97	2.88606
34.98	2.92258
34.99	2.94495
35	2.91567
35.01	2.9331
35.02	2.94166
35.03	2.91337
35.04	2.90416
35.05	2.91896
35.06	2.941
35.07	2.92225
35.08	2.95218
35.09	2.92981
35.1	2.94528
35.11	2.92488
35.12	2.9183
35.13	2.90054
35.14	2.92817
35.15	2.90251
35.16	2.95712
35.17	2.91172
35.18	2.93343
35.19	2.91698
35.2	2.92159
35.21	2.92422
35.22	2.93277
35.23	2.92652
35.24	2.95778
35.25	2.94988
35.26	2.89593
35.27	2.90054
35.28	2.91139
35.29	2.9387
35.3	2.91402
35.31	2.92554
35.32	2.94429
35.33	2.92488
35.34	2.95909
35.35	2.9206
35.36	2.91962
35.37	2.89429
35.38	2.92554
35.39	2.9637
35.4	2.93047
35.41	2.92554
35.42	2.93014
35.43	2.94429
35.44	2.89462
35.45	2.90416
35.46	2.90383
35.47	2.91995
35.48	2.93606
35.49	2.90021
35.5	2.93935
35.51	2.93672
35.52	2.94199
35.53	2.92784
35.54	2.89593
35.55	2.90284
35.56	2.92027
35.57	2.95909
35.58	2.95021
35.59	2.95054
35.6	2.916
35.61	2.90909
35.62	2.93343
35.63	2.91073
35.64	2.94495
35.65	2.93508
35.66	2.91567
35.67	2.94692
35.68	2.96435
35.69	2.93343
35.7	2.91896
35.71	2.916
35.72	2.90975
35.73	2.89626
35.74	2.94758
35.75	2.94396
35.76	2.9308
35.77	2.92159
35.78	2.93837
35.79	2.93376
35.8	2.96501
35.81	2.93113
35.82	2.94626
35.83	2.93442
35.84	2.91863
35.85	2.94462
35.86	2.94199
35.87	2.95449
35.88	2.93343
35.89	2.90481
35.9	2.8808
35.91	2.94396
35.92	2.95449
35.93	2.92356
35.94	2.91205
35.95	2.94626
35.96	2.92685
35.97	2.9137
35.98	2.94001
35.99	2.93771
36	2.95745
36.01	2.94758
36.02	2.94856
36.03	2.95284
36.04	2.93672
36.05	2.95021
36.06	2.93672
36.07	2.95317
36.08	2.94626
36.09	2.96995
36.1	2.94955
36.11	2.94067
36.12	2.96896
36.13	2.94889
36.14	2.98508
36.15	2.94955
36.16	2.94659
36.17	2.92521
36.18	2.96008
36.19	2.95975
36.2	2.94528
36.21	2.8956
36.22	2.91896
36.23	2.93837
36.24	2.94231
36.25	2.93014
36.26	2.90251
36.27	2.91172
36.28	2.92521
36.29	2.93705
36.3	2.9183
36.31	2.92159
36.32	2.93146
36.33	2.9081
36.34	2.9137
36.35	2.92389
36.36	2.91337
36.37	2.91041
36.38	2.93409
36.39	2.92422
36.4	2.91698
36.41	2.91041
36.42	2.94034
36.43	2.95284
36.44	2.90876
36.45	2.93672
36.46	2.93574
36.47	2.94791
36.48	2.90843
36.49	2.93376
36.5	2.90876
36.51	2.916
36.52	2.93574
36.53	2.91731
36.54	2.95514
36.55	2.91698
36.56	2.92652
36.57	2.90679
36.58	2.90481
36.59	2.94363
36.6	2.90119
36.61	2.91764
36.62	2.94758
36.63	2.96501
36.64	2.9558
36.65	2.92685
36.66	2.88837
36.67	2.90547
36.68	2.91501
36.69	2.93245
36.7	2.91041
36.71	2.90777
36.72	2.93475
36.73	2.9456
36.74	2.93606
36.75	2.92422
36.76	2.91929
36.77	2.92192
36.78	2.96468
36.79	2.94955
36.8	2.94528
36.81	2.92455
36.82	2.91567
36.83	2.9262
36.84	2.93014
36.85	2.94659
36.86	2.91962
36.87	2.91666
36.88	2.91962
36.89	2.94231
36.9	2.93245
36.91	2.90317
36.92	2.90876
36.93	2.92981
36.94	2.90942
36.95	2.88672
36.96	2.90514
36.97	2.91929
36.98	2.91468
36.99	2.93146
37	2.92652
37.01	2.90251
37.02	2.94264
37.03	2.92159
37.04	2.92324
37.05	2.9331
37.06	2.91073
37.07	2.91238
37.08	2.92258
37.09	2.9308
37.1	2.92159
37.11	2.91698
37.12	2.89363
37.13	2.92652
37.14	2.91995
37.15	2.93113
37.16	2.93146
37.17	2.93475
37.18	2.9035
37.19	2.93837
37.2	2.92324
37.21	2.94264
37.22	2.94462
37.23	2.90251
37.24	2.91402
37.25	2.91435
37.26	2.90416
37.27	2.92093
37.28	2.93179
37.29	2.91468
37.3	2.9433
37.31	2.90909
37.32	2.91633
37.33	2.93442
37.34	2.91238
37.35	2.92554
37.36	2.91238
37.37	2.89955
37.38	2.94067
37.39	2.9558
37.4	2.93047
37.41	2.90284
37.42	2.92422
37.43	2.93508
37.44	2.95218
37.45	2.91402
37.46	2.91863
37.47	2.92554
37.48	2.91764
37.49	2.9035
37.5	2.90646
37.51	2.92751
37.52	2.92093
37.53	2.93475
37.54	2.93146
37.55	2.91337
37.56	2.93738
37.57	2.98607
37.58	2.91633
37.59	2.93409
37.6	2.92291
37.61	2.93672
37.62	2.92159
37.63	2.91205
37.64	2.93771
37.65	2.9308
37.66	2.92422
37.67	2.94067
37.68	2.95942
37.69	2.96172
37.7	2.9206
37.71	2.9637
37.72	2.91896
37.73	2.91041
37.74	2.93277
37.75	2.95449
37.76	2.95153
37.77	2.92291
37.78	2.95613
37.79	2.9331
37.8	2.88244
37.81	2.89494
37.82	2.9262
37.83	2.93179
37.84	2.8956
37.85	2.92126
37.86	2.941
37.87	2.9183
37.88	2.90942
37.89	2.941
37.9	2.92718
37.91	2.92192
37.92	2.91073
37.93	2.93639
37.94	2.91797
37.95	2.90843
37.96	2.9262
37.97	2.92817
37.98	2.91468
37.99	2.95383
38	2.90646
38.01	2.93738
38.02	2.95942
38.03	2.941
38.04	2.91764
38.05	2.91633
38.06	2.95087
38.07	2.90942
38.08	2.90876
38.09	2.91764
38.1	2.93343
38.11	2.95975
38.12	2.91764
38.13	2.92784
38.14	2.94593
38.15	2.91731
38.16	2.916
38.17	2.94034
38.18	2.91567
38.19	2.94264
38.2	2.9262
38.21	2.88968
38.22	2.93442
38.23	2.91468
38.24	2.92652
38.25	2.93277
38.26	2.93277
38.27	2.94626
38.28	2.91863
38.29	2.90119
38.3	2.91238
38.31	2.94001
38.32	2.94725
38.33	2.91633
38.34	2.916
38.35	2.91501
38.36	2.92916
38.37	2.89692
38.38	2.88869
38.39	2.93113
38.4	2.91106
38.41	2.93968
38.42	2.94429
38.43	2.92685
38.44	2.90876
38.45	2.91929
38.46	2.9387
38.47	2.91698
38.48	2.93639
38.49	2.90284
38.5	2.91238
38.51	2.92554
38.52	2.93376
38.53	2.94199
38.54	2.92652
38.55	2.92192
38.56	2.90712
38.57	2.89988
38.58	2.9387
38.59	2.95843
38.6	2.9683
38.61	2.91567
38.62	2.91337
38.63	2.93606
38.64	2.92093
38.65	2.96107
38.66	2.95153
38.67	2.9433
38.68	2.91666
38.69	2.91073
38.7	2.90514
38.71	2.92652
38.72	2.94264
38.73	2.91764
38.74	2.89166
38.75	2.90712
38.76	2.88902
38.77	2.92817
38.78	2.91008
38.79	2.92258
38.8	2.91139
38.81	2.94297
38.82	2.95514
38.83	2.95054
38.84	2.95613
38.85	2.90416
38.86	2.90777
38.87	2.89462
38.88	2.91501
38.89	2.90317
38.9	2.90448
38.91	2.93968
38.92	2.94133
38.93	2.90745
38.94	2.92291
38.95	2.93113
38.96	2.87554
38.97	2.9262
38.98	2.96403
38.99	2.9206
39	2.92521
39.01	2.92192
39.02	2.90152
39.03	2.94034
39.04	2.92817
39.05	2.92192
39.06	2.93047
39.07	2.93935
39.08	2.90843
39.09	2.93047
39.1	2.95317
39.11	2.93606
39.12	2.96732
39.13	2.93376
39.14	2.92455
39.15	2.93804
39.16	2.93639
39.17	2.9308
39.18	2.89922
39.19	2.90119
39.2	2.91304
39.21	2.93574
39.22	2.90185
39.23	2.92685
39.24	2.92389
39.25	2.93837
39.26	2.91501
39.27	2.90218
39.28	2.9058
39.29	2.89264
39.3	2.92258
39.31	2.9433
39.32	2.90284
39.33	2.92225
39.34	2.91698
39.35	2.93903
39.36	2.92488
39.37	2.94264
39.38	2.92784
39.39	2.9433
39.4	2.94791
39.41	2.9433
39.42	2.92784
39.43	2.91435
39.44	2.90876
39.45	2.92455
39.46	2.95547
39.47	2.93179
39.48	2.92784
39.49	2.92521
39.5	2.94297
39.51	2.92389
39.52	2.92192
39.53	2.92916
39.54	2.92981
39.55	2.96534
39.56	2.9683
39.57	2.94363
39.58	2.93903
39.59	2.89034
39.6	2.90284
39.61	2.92324
39.62	2.94922
39.63	2.88869
39.64	2.91041
39.65	2.92027
39.66	2.95416
39.67	2.94528
39.68	2.92652
39.69	2.94593
39.7	2.93146
39.71	2.90481
39.72	2.92718
39.73	2.91797
39.74	2.93705
39.75	2.91995
39.76	2.87587
39.77	2.89396
39.78	2.94824
39.79	2.91896
39.8	2.91534
39.81	2.93574
39.82	2.92126
39.83	2.92916
39.84	2.92291
39.85	2.87948
39.86	2.88902
39.87	2.93606
39.88	2.93376
39.89	2.94001
39.9	2.91337
39.91	2.93771
39.92	2.90909
39.93	2.93179
39.94	2.92981
39.95	2.92817
39.96	2.91567
39.97	2.9581
39.98	2.94626
39.99	2.93837
40	2.9331
40.01	2.92455
40.02	2.91863
40.03	2.93179
40.04	2.91666
40.05	2.91797
40.06	2.9581
40.07	2.96074
40.08	2.91731
40.09	2.92159
40.1	2.93212
40.11	2.91304
40.12	2.94791
40.13	2.95021
40.14	2.97126
40.15	2.94758
40.16	2.92784
40.17	2.95021
40.18	2.93113
40.19	2.9331
40.2	2.93277
40.21	2.91041
40.22	2.93014
40.23	2.93771
40.24	2.94231
40.25	2.9785
40.26	2.95547
40.27	2.9387
40.28	2.93935
40.29	2.91304
40.3	2.92554
40.31	2.92455
40.32	2.94199
40.33	2.93343
40.34	2.88935
40.35	2.91797
40.36	2.92093
40.37	2.93639
40.38	2.94067
40.39	2.89823
40.4	2.93738
40.41	2.93771
40.42	2.92126
40.43	2.93672
40.44	2.94856
40.45	2.90152
40.46	2.88705
40.47	2.96501
40.48	2.93639
40.49	2.9058
40.5	2.92685
40.51	2.94462
40.52	2.93409
40.53	2.93179
40.54	2.9058
40.55	2.93738
40.56	2.92389
40.57	2.9206
40.58	2.90383
40.59	2.93376
40.6	2.92192
40.61	2.93179
40.62	2.93409
40.63	2.95021
40.64	2.91863
40.65	2.9512
40.66	2.91797
40.67	2.90843
40.68	2.92356
40.69	2.92652
40.7	2.92488
40.71	2.96271
40.72	2.91666
40.73	2.941
40.74	2.95613
40.75	2.92521
40.76	2.89133
40.77	2.92883
40.78	2.94791
40.79	2.92587
40.8	2.92225
40.81	2.90843
40.82	2.91139
40.83	2.92192
40.84	2.96534
40.85	2.94133
40.86	2.93541
40.87	2.95646
40.88	2.92751
40.89	2.9137
40.9	2.94462
40.91	2.93508
40.92	2.9331
40.93	2.94692
40.94	2.94067
40.95	2.93113
40.96	2.91698
40.97	2.94889
40.98	2.91402
40.99	2.9206
41	2.95482
41.01	2.88672
41.02	2.93277
41.03	2.92488
41.04	2.93475
41.05	2.92422
41.06	2.91139
41.07	2.93442
41.08	2.91238
41.09	2.93968
41.1	2.87027
41.11	2.92718
41.12	2.9137
41.13	2.92192
41.14	2.93508
41.15	2.9183
41.16	2.93343
41.17	2.92554
41.18	2.89791
41.19	2.94001
41.2	2.92883
41.21	2.95021
41.22	2.9535
41.23	2.91435
41.24	2.93705
41.25	2.90218
41.26	2.93771
41.27	2.95218
41.28	2.9035
41.29	2.93475
41.3	2.94067
41.31	2.92718
41.32	2.93574
41.33	2.9285
41.34	2.95185
41.35	2.92356
41.36	2.92258
41.37	2.92422
41.38	2.93935
41.39	2.95712
41.4	2.95547
41.41	2.93639
41.42	2.9262
41.43	2.92652
41.44	2.95712
41.45	2.91698
41.46	2.92784
41.47	2.93376
41.48	2.95613
41.49	2.94725
41.5	2.90942
41.51	2.89988
41.52	2.89955
41.53	2.941
41.54	2.95087
41.55	2.9331
41.56	2.98179
41.57	2.94166
41.58	2.9433
41.59	2.97324
41.6	2.94264
41.61	2.93804
41.62	2.92126
41.63	2.92389
41.64	2.90284
41.65	2.91008
41.66	2.92455
41.67	2.93968
41.68	2.91666
41.69	2.93146
41.7	2.9308
41.71	2.93475
41.72	2.93047
41.73	2.91172
41.74	2.89626
41.75	2.92422
41.76	2.94199
41.77	2.96172
41.78	2.94791
41.79	2.94166
41.8	2.92949
41.81	2.91863
41.82	2.94363
41.83	2.95514
41.84	2.94791
41.85	2.90777
41.86	2.93146
41.87	2.94231
41.88	2.93705
41.89	2.9183
41.9	2.89988
41.91	2.93146
41.92	2.91205
41.93	2.91731
41.94	2.92389
41.95	2.92718
41.96	2.94396
41.97	2.9512
41.98	2.93935
41.99	2.91567
42	2.95054
42.01	2.93113
42.02	2.90909
42.03	2.91666
42.04	2.93672
42.05	2.93672
42.06	2.92652
42.07	2.92027
42.08	2.94528
42.09	2.95778
42.1	2.95416
42.11	2.93574
42.12	2.92587
42.13	2.90777
42.14	2.92422
42.15	2.90712
42.16	2.91304
42.17	2.96863
42.18	2.95679
42.19	2.91172
42.2	2.91501
42.21	2.9387
42.22	2.93212
42.23	2.94264
42.24	2.9308
42.25	2.92488
42.26	2.94528
42.27	2.94528
42.28	2.92685
42.29	2.95745
42.3	2.95909
42.31	2.93606
42.32	2.93837
42.33	2.90218
42.34	2.90481
42.35	2.93179
42.36	2.9137
42.37	2.91764
42.38	2.90909
42.39	2.90448
42.4	2.89034
42.41	2.91962
42.42	2.88573
42.43	2.92685
42.44	2.88837
42.45	2.90416
42.46	2.88902
42.47	2.94133
42.48	2.93508
42.49	2.92291
42.5	2.92685
42.51	2.96797
42.52	2.92488
42.53	2.89659
42.54	2.91698
42.55	2.92324
42.56	2.92422
42.57	2.88738
42.58	2.90547
42.59	2.91402
42.6	2.90416
42.61	2.94297
42.62	2.92981
42.63	2.92817
42.64	2.92652
42.65	2.91896
42.66	2.91962
42.67	2.92389
42.68	2.90383
42.69	2.94593
42.7	2.92916
42.71	2.9183
42.72	2.9285
42.73	2.91797
42.74	2.93705
42.75	2.90547
42.76	2.95679
42.77	2.9308
42.78	2.91172
42.79	2.91008
42.8	2.94758
42.81	2.96271
42.82	2.96501
42.83	2.96172
42.84	2.9308
42.85	2.92093
42.86	2.96403
42.87	2.94725
42.88	2.91337
42.89	2.91633
42.9	2.93113
42.91	2.96732
42.92	2.97093
42.93	2.97258
42.94	2.92784
42.95	2.91797
42.96	2.89791
42.97	2.93574
42.98	2.93672
42.99	2.9331
43	2.91172
43.01	2.9308
43.02	2.9433
43.03	2.92554
43.04	2.916
43.05	2.88935
43.06	2.90284
43.07	2.94034
43.08	2.94725
43.09	2.8933
43.1	2.94067
43.11	2.94659
43.12	2.86665
43.13	2.89988
43.14	2.90646
43.15	2.88738
43.16	2.92389
43.17	2.91698
43.18	2.95251
43.19	2.93935
43.2	2.91698
43.21	2.93705
43.22	2.93343
43.23	2.92126
43.24	2.92554
43.25	2.92093
43.26	2.94692
43.27	2.91995
43.28	2.9308
43.29	2.91106
43.3	2.92455
43.31	2.92652
43.32	2.92817
43.33	2.92718
43.34	2.90119
43.35	2.91633
43.36	2.92422
43.37	2.96139
43.38	2.94133
43.39	2.92291
43.4	2.93574
43.41	2.92126
43.42	2.94692
43.43	2.92718
43.44	2.91402
43.45	2.90448
43.46	2.92718
43.47	2.92817
43.48	2.93047
43.49	2.94955
43.5	2.94067
43.51	2.94955
43.52	2.90975
43.53	2.91698
43.54	2.93442
43.55	2.91468
43.56	2.94791
43.57	2.96238
43.58	2.93606
43.59	2.92521
43.6	2.9558
43.61	2.93738
43.62	2.92159
43.63	2.94133
43.64	2.90284
43.65	2.90876
43.66	2.92916
43.67	2.92225
43.68	2.90481
43.69	2.9058
43.7	2.9058
43.71	2.92488
43.72	2.92554
43.73	2.90843
43.74	2.91008
43.75	2.93047
43.76	2.91896
43.77	2.90547
43.78	2.93146
43.79	2.92027
43.8	2.9456
43.81	2.93376
43.82	2.93837
43.83	2.91106
43.84	2.90448
43.85	2.93179
43.86	2.94495
43.87	2.91435
43.88	2.94067
43.89	2.95153
43.9	2.96074
43.91	2.9331
43.92	2.93771
43.93	2.95087
43.94	2.93475
43.95	2.93277
43.96	2.90481
43.97	2.96041
43.98	2.91501
43.99	2.92784
44	2.93442
44.01	2.91205
44.02	2.93179
44.03	2.97192
44.04	2.94593
44.05	2.94626
44.06	2.93837
44.07	2.93606
44.08	2.94001
44.09	2.89692
44.1	2.9285
44.11	2.91501
44.12	2.90547
44.13	2.93442
44.14	2.9285
44.15	2.95251
44.16	2.92521
44.17	2.91929
44.18	2.93376
44.19	2.91698
44.2	2.92126
44.21	2.92324
44.22	2.94593
44.23	2.93968
44.24	2.90317
44.25	2.91008
44.26	2.93113
44.27	2.93574
44.28	2.93343
44.29	2.94297
44.3	2.93475
44.31	2.8956
44.32	2.94429
44.33	2.94692
44.34	2.92324
44.35	2.9558
44.36	2.89791
44.37	2.94988
44.38	2.93113
44.39	2.95054
44.4	2.92192
44.41	2.93738
44.42	2.93014
44.43	2.91271
44.44	2.93738
44.45	2.93672
44.46	2.94034
44.47	2.91205
44.48	2.92324
44.49	2.91797
44.5	2.91238
44.51	2.92685
44.52	2.93376
44.53	2.90909
44.54	2.94528
44.55	2.93047
44.56	2.94889
44.57	2.94725
44.58	2.91567
44.59	2.91764
44.6	2.92488
44.61	2.891
44.62	2.88705
44.63	2.90679
44.64	2.88705
44.65	2.9331
44.66	2.94692
44.67	2.91929
44.68	2.92258
44.69	2.91731
44.7	2.92883
44.71	2.92027
44.72	2.9035
44.73	2.92981
44.74	2.92192
44.75	2.92356
44.76	2.91304
44.77	2.93409
44.78	2.90251
44.79	2.93837
44.8	2.96666
44.81	2.95876
44.82	2.9183
44.83	2.90777
44.84	2.94856
44.85	2.92488
44.86	2.92949
44.87	2.941
44.88	2.93047
44.89	2.93837
44.9	2.91698
44.91	2.93771
44.92	2.94626
44.93	2.94856
44.94	2.92192
44.95	2.92324
44.96	2.92554
44.97	2.96962
44.98	2.94001
44.99	2.93606
45	2.94988
45.01	2.93606
45.02	2.93508
45.03	2.93113
45.04	2.92817
45.05	2.96501
45.06	2.99067
45.07	2.91698
45.08	2.92718
45.09	2.93606
45.1	2.89133
45.11	2.89034
45.12	2.90021
45.13	2.94758
45.14	2.93606
45.15	2.93574
45.16	2.93606
45.17	2.9535
45.18	2.92422
45.19	2.93179
45.2	2.97554
45.21	2.91929
45.22	2.92159
45.23	2.92027
45.24	2.94626
45.25	2.94231
45.26	2.92389
45.27	2.95613
45.28	2.94001
45.29	2.94363
45.3	2.94659
45.31	2.98376
45.32	2.95482
45.33	2.9387
45.34	2.94429
45.35	2.93639
45.36	2.93541
45.37	2.9512
45.38	2.94462
45.39	2.92455
45.4	2.94264
45.41	2.94692
45.42	2.92718
45.43	2.92258
45.44	2.9285
45.45	2.91929
45.46	2.92488
45.47	2.95054
45.48	2.95021
45.49	2.99067
45.5	2.95514
45.51	2.92389
45.52	2.93903
45.53	2.94922
45.54	2.95679
45.55	2.95975
45.56	2.95054
45.57	2.95876
45.58	2.94593
45.59	2.95482
45.6	2.93639
45.61	2.91238
45.62	2.92685
45.63	2.9183
45.64	2.91435
45.65	2.94528
45.66	2.94988
45.67	2.9331
45.68	2.96238
45.69	2.95251
45.7	2.93047
45.71	2.92718
45.72	2.92949
45.73	2.93179
45.74	2.89067
45.75	2.94231
45.76	2.93639
45.77	2.92916
45.78	2.90942
45.79	2.90119
45.8	2.94988
45.81	2.95876
45.82	2.94067
45.83	2.92652
45.84	2.93047
45.85	2.94922
45.86	2.92192
45.87	2.93935
45.88	2.92916
45.89	2.91995
45.9	2.92587
45.91	2.9206
45.92	2.92159
45.93	2.9433
45.94	2.92751
45.95	2.94593
45.96	2.95514
45.97	2.94166
45.98	2.9512
45.99	2.89922
46	2.87455
46.01	2.92422
46.02	2.96139
46.03	2.97061
46.04	2.93738
46.05	2.92258
46.06	2.94659
46.07	2.94791
46.08	2.92981
46.09	2.94758
46.1	2.93409
46.11	2.9035
46.12	2.92225
46.13	2.91337
46.14	2.96074
46.15	2.92685
46.16	2.94429
46.17	2.96041
46.18	2.95185
46.19	2.92949
46.2	2.91534
46.21	2.91106
46.22	2.92883
46.23	2.9183
46.24	2.90843
46.25	2.92192
46.26	2.92554
46.27	2.94626
46.28	2.9433
46.29	2.94034
46.3	2.94297
46.31	2.92587
46.32	2.94988
46.33	2.94166
46.34	2.93705
46.35	2.95547
46.36	2.97653
46.37	2.93442
46.38	2.95712
46.39	2.91435
46.4	2.88804
46.41	2.90843
46.42	2.91929
46.43	2.90909
46.44	2.91304
46.45	2.90021
46.46	2.9456
46.47	2.92751
46.48	2.92883
46.49	2.88968
46.5	2.91073
46.51	2.91238
46.52	2.93968
46.53	2.92027
46.54	2.90909
46.55	2.93409
46.56	2.941
46.57	2.95185
46.58	2.97949
46.59	3.00482
46.6	2.96732
46.61	2.97949
46.62	3.01469
46.63	3.00646
46.64	2.9864
46.65	2.98047
46.66	2.966
46.67	2.94889
46.68	2.95909
46.69	2.89626
46.7	2.90909
46.71	2.90942
46.72	2.93804
46.73	2.92981
46.74	2.93837
46.75	2.90712
46.76	2.90975
46.77	2.93903
46.78	2.92916
46.79	2.91962
46.8	2.93146
46.81	2.98968
46.82	2.97521
46.83	2.90975
46.84	2.96501
46.85	2.95909
46.86	2.9308
46.87	2.93672
46.88	2.93804
46.89	2.94725
46.9	2.9387
46.91	2.91468
46.92	2.95284
46.93	2.97357
46.94	2.96699
46.95	2.9433
46.96	2.96501
46.97	2.966
46.98	2.93475
46.99	2.92258
47	2.91205
47.01	2.95449
47.02	2.92291
47.03	2.93343
47.04	2.93343
47.05	2.94889
47.06	2.92751
47.07	2.90975
47.08	2.93804
47.09	2.93343
47.1	2.95679
47.11	2.95975
47.12	2.97784
47.13	2.93014
47.14	2.95449
47.15	2.92981
47.16	2.95251
47.17	2.9183
47.18	2.9535
47.19	2.92324
47.2	2.93343
47.21	2.96567
47.22	2.96041
47.23	2.94133
47.24	2.94725
47.25	2.94199
47.26	2.94363
47.27	2.91929
47.28	2.95449
47.29	2.91205
47.3	2.91797
47.31	2.9285
47.32	2.90119
47.33	2.90843
47.34	2.95383
47.35	2.96107
47.36	2.92718
47.37	2.95383
47.38	2.94034
47.39	2.92883
47.4	2.96238
47.41	2.94692
47.42	2.94725
47.43	2.91797
47.44	2.96271
47.45	2.92981
47.46	2.94133
47.47	2.95482
47.48	2.95449
47.49	2.94856
47.5	2.93047
47.51	2.94231
47.52	2.94791
47.53	2.90975
47.54	2.96468
47.55	2.95317
47.56	2.95185
47.57	2.97093
47.58	2.94725
47.59	2.91666
47.6	2.94396
47.61	2.93179
47.62	2.92291
47.63	2.95876
47.64	2.91962
47.65	2.90152
47.66	2.89889
47.67	2.92126
47.68	2.90087
47.69	2.89791
47.7	2.90383
47.71	2.9558
47.72	2.96995
47.73	2.93014
47.74	2.91238
47.75	2.93935
47.76	2.93277
47.77	2.93508
47.78	2.96797
47.79	2.94856
47.8	2.92883
47.81	2.93212
47.82	2.93606
47.83	2.92981
47.84	2.92324
47.85	2.90087
47.86	2.92784
47.87	2.93903
47.88	2.96863
47.89	2.94429
47.9	2.94297
47.91	2.92685
47.92	2.92324
47.93	2.91172
47.94	2.90646
47.95	2.91797
47.96	2.93771
47.97	2.95054
47.98	2.96008
47.99	2.95317
48	2.97093
48.01	2.95679
48.02	2.94626
48.03	2.92488
48.04	2.94824
48.05	2.95778
48.06	2.93935
48.07	2.93968
48.08	2.92652
48.09	2.92455
48.1	2.95646
48.11	2.92159
48.12	2.9433
48.13	2.93113
48.14	2.96764
48.15	2.93508
48.16	2.94659
48.17	2.90777
48.18	2.9262
48.19	2.91172
48.2	2.9285
48.21	2.91797
48.22	2.96139
48.23	2.91929
48.24	2.89856
48.25	2.95021
48.26	2.96403
48.27	2.93541
48.28	2.91863
48.29	2.93606
48.3	2.87817
48.31	2.92652
48.32	2.91106
48.33	2.9535
48.34	2.92027
48.35	2.93574
48.36	2.94133
48.37	2.90712
48.38	2.90416
48.39	2.93837
48.4	2.91468
48.41	2.93179
48.42	2.92587
48.43	2.941
48.44	2.89034
48.45	2.92093
48.46	2.9433
48.47	2.94889
48.48	2.9262
48.49	2.91139
48.5	2.91929
48.51	2.91534
48.52	2.90119
48.53	2.96172
48.54	2.93277
48.55	2.92422
48.56	2.90547
48.57	2.9558
48.58	2.92455
48.59	2.92883
48.6	2.94133
48.61	2.95218
48.62	2.94889
48.63	2.94922
48.64	2.93277
48.65	2.93804
48.66	2.94495
48.67	2.94692
48.68	2.95646
48.69	2.92225
48.7	2.95218
48.71	2.96699
48.72	2.9308
48.73	2.94955
48.74	2.96337
48.75	2.93771
48.76	2.94396
48.77	2.94626
48.78	2.92652
48.79	2.92751
48.8	2.92916
48.81	2.92521
48.82	2.94067
48.83	2.96008
48.84	2.92817
48.85	2.93804
48.86	2.96139
48.87	2.91271
48.88	2.91666
48.89	2.94034
48.9	2.90909
48.91	2.93376
48.92	2.93837
48.93	2.92324
48.94	2.92225
48.95	2.93376
48.96	2.89363
48.97	2.91896
48.98	2.92883
48.99	2.92685
49	2.91008
49.01	2.93442
49.02	2.93508
49.03	2.94001
49.04	2.93574
49.05	2.92093
49.06	2.90942
49.07	2.92488
49.08	2.9456
49.09	2.91698
49.1	2.916
49.11	2.92652
49.12	2.96172
49.13	2.95547
49.14	2.93606
49.15	2.92356
49.16	2.92488
49.17	2.89823
49.18	2.90119
49.19	2.91764
49.2	2.92949
49.21	2.95547
49.22	2.92027
49.23	2.89494
49.24	2.91139
49.25	2.92258
49.26	2.93639
49.27	2.90087
49.28	2.92685
49.29	2.93113
49.3	2.91995
49.31	2.92817
49.32	2.89692
49.33	2.941
49.34	2.94955
49.35	2.93672
49.36	2.94297
49.37	2.92949
49.38	2.92258
49.39	2.916
49.4	2.9262
49.41	2.92981
49.42	2.92685
49.43	2.95745
49.44	2.92225
49.45	2.90613
49.46	2.91435
49.47	2.93442
49.48	2.93771
49.49	2.94791
49.5	2.94922
49.51	2.89429
49.52	2.92685
49.53	2.9262
49.54	2.91468
49.55	2.90745
49.56	2.91073
49.57	2.93146
49.58	2.89922
49.59	2.90876
49.6	2.87192
49.61	2.89494
49.62	2.89823
49.63	2.93343
49.64	2.89593
49.65	2.91995
49.66	2.93508
49.67	2.90514
49.68	2.92258
49.69	2.94166
49.7	2.92521
49.71	2.93672
49.72	2.93409
49.73	2.93146
49.74	2.9331
49.75	2.97751
49.76	2.93574
49.77	2.94824
49.78	2.91896
49.79	2.93277
49.8	2.95185
49.81	2.90876
49.82	2.91041
49.83	2.91501
49.84	2.94791
49.85	2.93245
49.86	2.92225
49.87	2.91172
49.88	2.90448
49.89	2.92718
49.9	2.92356
49.91	2.92587
49.92	2.92488
49.93	2.93442
49.94	2.92883
49.95	2.9035
49.96	2.91501
49.97	2.91896
49.98	2.9285
49.99	2.94133
50	2.91304
