"BIO-KINE ASCII FILE"
"_COMMENT"	"MOS-500 Spectrometer"
"_COMMENT"	"Kinetics measurement"
"_COMMENT"	"Y Unit : Volt,  X Unit : s"
"_COMMENT"	"Excitation wavelength : 380 nm"
"_COMMENT"	"Fentes bandwidth =  1 nm"
"_COMMENT"	"HV= 1000V"
"_COMMENT"	"Timebase  1 =  .01 s   5001 pts"
"_SFM"	"SFM-400 /S  Advanced mode"
"_SFM"	"Ratio : S1: 2.5, S2: 0, S3: 0, S4: 1"
"_SFM"	"Content : S1: , S2: , S3: , S4:"
"_SFM"	"Concentration : S1: , S2: , S3: , S4:"
"_SFM"	"Total volume : 209 µl  Flow : 3.5 mL/s"
"_SFM"	"Acquisition start :  10 ms before stop"
"_SFM"	"cuve=FC-15, s1=10 ml , s2=10 ml , s3=10 ml , s4=1.9 ml"
"_UNITX"	"s"
"_UNITY"	"Volt"
"_DELTAX"	0
"_DATA"
1e-300	8.29642
0.01	8.503
0.02	8.53622
0.03	8.58327
0.04	8.66156
0.05	8.75827
0.06	8.81024
0.07	8.83228
0.08	8.7961
0.09	8.83327
0.1	8.83623
0.11	8.85663
0.12	8.86156
0.13	8.74379
0.14	8.82143
0.15	8.83294
0.16	8.82702
0.17	8.85202
0.18	8.84347
0.19	8.83294
0.2	8.85136
0.21	8.79972
0.22	8.81222
0.23	8.81123
0.24	8.84117
0.25	8.80432
0.26	8.8609
0.27	8.81452
0.28	8.83952
0.29	8.83755
0.3	8.8132
0.31	8.78294
0.32	8.84084
0.33	8.80235
0.34	8.85367
0.35	8.82307
0.36	8.83557
0.37	8.83163
0.38	8.76419
0.39	8.72603
0.4	8.81682
0.41	8.78031
0.42	8.74051
0.43	8.75103
0.44	8.73985
0.45	8.77044
0.46	8.76123
0.47	8.77373
0.48	8.77702
0.49	8.7632
0.5	8.7813
0.51	8.78919
0.52	8.80564
0.53	8.7563
0.54	8.73952
0.55	8.73228
0.56	8.70958
0.57	8.74774
0.58	8.73195
0.59	8.71616
0.6	8.75005
0.61	8.76189
0.62	8.70399
0.63	8.69314
0.64	8.70761
0.65	8.70925
0.66	8.69577
0.67	8.66189
0.68	8.66682
0.69	8.69939
0.7	8.6905
0.71	8.65432
0.72	8.68754
0.73	8.7586
0.74	8.71518
0.75	8.64083
0.76	8.72833
0.77	8.66419
0.78	8.67833
0.79	8.62406
0.8	8.63754
0.81	8.68754
0.82	8.6359
0.83	8.64182
0.84	8.65794
0.85	8.63261
0.86	8.67077
0.87	8.59478
0.88	8.59511
0.89	8.61188
0.9	8.63952
0.91	8.63031
0.92	8.63985
0.93	8.61123
0.94	8.59116
0.95	8.51484
0.96	8.55201
0.97	8.61748
0.98	8.57109
0.99	8.57241
1	8.60925
1.01	8.5609
1.02	8.57734
1.03	8.55826
1.04	8.59346
1.05	8.52109
1.06	8.54017
1.07	8.55465
1.08	8.57669
1.09	8.54675
1.1	8.53392
1.11	8.51188
1.12	8.48293
1.13	8.51418
1.14	8.49478
1.15	8.56879
1.16	8.55925
1.17	8.47767
1.18	8.48524
1.19	8.49774
1.2	8.48392
1.21	8.50695
1.22	8.48359
1.23	8.44708
1.24	8.48951
1.25	8.46912
1.26	8.43326
1.27	8.3905
1.28	8.40201
1.29	8.43359
1.3	8.54313
1.31	8.54083
1.32	8.50136
1.33	8.44774
1.34	8.48787
1.35	8.44149
1.36	8.38951
1.37	8.37635
1.38	8.4632
1.39	8.43458
1.4	8.45135
1.41	8.43359
1.42	8.42668
1.43	8.37668
1.44	8.33819
1.45	8.40596
1.46	8.40102
1.47	8.34708
1.48	8.38655
1.49	8.30563
1.5	8.36616
1.51	8.34839
1.52	8.39609
1.53	8.39839
1.54	8.40497
1.55	8.39148
1.56	8.38392
1.57	8.38655
1.58	8.42208
1.59	8.36714
1.6	8.37339
1.61	8.32833
1.62	8.36583
1.63	8.40398
1.64	8.35694
1.65	8.39445
1.66	8.35925
1.67	8.25957
1.68	8.2951
1.69	8.33721
1.7	8.34477
1.71	8.35037
1.72	8.34247
1.73	8.31648
1.74	8.36944
1.75	8.30793
1.76	8.28984
1.77	8.31385
1.78	8.28556
1.79	8.28589
1.8	8.24115
1.81	8.25431
1.82	8.27898
1.83	8.32635
1.84	8.31747
1.85	8.29346
1.86	8.27471
1.87	8.26155
1.88	8.30398
1.89	8.27175
1.9	8.23951
1.91	8.27339
1.92	8.31286
1.93	8.25661
1.94	8.26846
1.95	8.24971
1.96	8.24674
1.97	8.2224
1.98	8.21352
1.99	8.1724
2	8.2326
2.01	8.20595
2.02	8.17931
2.03	8.21944
2.04	8.20497
2.05	8.22964
2.06	8.21911
2.07	8.23161
2.08	8.15365
2.09	8.16747
2.1	8.22306
2.11	8.17931
2.12	8.22701
2.13	8.21549
2.14	8.17832
2.15	8.22536
2.16	8.17306
2.17	8.20135
2.18	8.23095
2.19	8.22438
2.2	8.15595
2.21	8.16582
2.22	8.11089
2.23	8.14181
2.24	8.14082
2.25	8.10858
2.26	8.18753
2.27	8.17997
2.28	8.10924
2.29	8.14411
2.3	8.16155
2.31	8.10661
2.32	8.15003
2.33	8.13556
2.34	8.102
2.35	8.17733
2.36	8.15924
2.37	8.13983
2.38	8.08095
2.39	8.10628
2.4	8.11154
2.41	8.12733
2.42	8.04904
2.43	8.01746
2.44	8.0997
2.45	8.0622
2.46	8.09181
2.47	8.08457
2.48	8.09477
2.49	8.07339
2.5	8.07865
2.51	8.09049
2.52	8.04707
2.53	8.07437
2.54	8.04148
2.55	8.07075
2.56	8.05628
2.57	8.04148
2.58	8.06056
2.59	7.9849
2.6	8.02009
2.61	8.02865
2.62	8.00134
2.63	8.05858
2.64	8.052
2.65	7.95858
2.66	7.98424
2.67	8.00661
2.68	7.96746
2.69	7.94772
2.7	8.03358
2.71	8.01384
2.72	8.0122
2.73	7.94805
2.74	7.95266
2.75	7.96812
2.76	7.97503
2.77	7.92404
2.78	8.00529
2.79	7.9974
2.8	7.99904
2.81	8.01483
2.82	7.98621
2.83	8.01615
2.84	7.92864
2.85	7.9599
2.86	7.91746
2.87	7.95003
2.88	7.94871
2.89	7.97733
2.9	7.94443
2.91	7.927
2.92	7.9474
2.93	7.89575
2.94	7.94115
2.95	7.90463
2.96	7.93325
2.97	7.99312
2.98	7.91253
2.99	7.92963
3	7.95266
3.01	7.91483
3.02	7.90891
3.03	7.90035
3.04	7.90134
3.05	7.89904
3.06	7.90266
3.07	7.9599
3.08	7.92766
3.09	7.86187
3.1	7.92634
3.11	7.9395
3.12	7.87108
3.13	7.88325
3.14	7.93095
3.15	7.92272
3.16	7.90035
3.17	7.86549
3.18	7.85562
3.19	7.83127
3.2	7.86549
3.21	7.85792
3.22	7.86285
3.23	7.87503
3.24	7.84377
3.25	7.85759
3.26	7.87503
3.27	7.84805
3.28	7.83062
3.29	7.76515
3.3	7.79739
3.31	7.82338
3.32	7.83917
3.33	7.82042
3.34	7.81844
3.35	7.82437
3.36	7.79312
3.37	7.83226
3.38	7.84608
3.39	7.80726
3.4	7.80002
3.41	7.82897
3.42	7.82864
3.43	7.7964
3.44	7.76943
3.45	7.78456
3.46	7.75463
3.47	7.7543
3.48	7.75726
3.49	7.7293
3.5	7.76483
3.51	7.79706
3.52	7.7543
3.53	7.82634
3.54	7.81219
3.55	7.81022
3.56	7.75792
3.57	7.76746
3.58	7.7464
3.59	7.75397
3.6	7.7418
3.61	7.78917
3.62	7.76877
3.63	7.78094
3.64	7.72469
3.65	7.7395
3.66	7.74904
3.67	7.71548
3.68	7.75167
3.69	7.73654
3.7	7.74114
3.71	7.71581
3.72	7.75331
3.73	7.75232
3.74	7.67009
3.75	7.72535
3.76	7.75923
3.77	7.7714
3.78	7.73357
3.79	7.71581
3.8	7.70561
3.81	7.74443
3.82	7.74048
3.83	7.73489
3.84	7.65265
3.85	7.68193
3.86	7.69838
3.87	7.71219
3.88	7.65726
3.89	7.67568
3.9	7.68324
3.91	7.66548
3.92	7.67173
3.93	7.71055
3.94	7.6816
3.95	7.69081
3.96	7.68785
3.97	7.68851
3.98	7.72305
3.99	7.70594
4	7.71384
4.01	7.68522
4.02	7.71713
4.03	7.65397
4.04	7.65199
4.05	7.61022
4.06	7.64903
4.07	7.6362
4.08	7.72173
4.09	7.68982
4.1	7.6316
4.11	7.63061
4.12	7.65134
4.13	7.65068
4.14	7.62206
4.15	7.60298
4.16	7.63818
4.17	7.6839
4.18	7.60429
4.19	7.63094
4.2	7.60693
4.21	7.62732
4.22	7.56285
4.23	7.60495
4.24	7.66186
4.25	7.60495
4.26	7.62305
4.27	7.62239
4.28	7.60594
4.29	7.5941
4.3	7.64739
4.31	7.60791
4.32	7.55331
4.33	7.60298
4.34	7.56778
4.35	7.56318
4.36	7.61647
4.37	7.63587
4.38	7.56186
4.39	7.59837
4.4	7.57337
4.41	7.57206
4.42	7.56712
4.43	7.55068
4.44	7.55758
4.45	7.55693
4.46	7.56383
4.47	7.53982
4.48	7.54508
4.49	7.51482
4.5	7.53686
4.51	7.56153
4.52	7.57107
4.53	7.55693
4.54	7.58982
4.55	7.54739
4.56	7.5237
4.57	7.55396
4.58	7.53061
4.59	7.50824
4.6	7.52107
4.61	7.51975
4.62	7.58982
4.63	7.54574
4.64	7.56844
4.65	7.5816
4.66	7.54936
4.67	7.4737
4.68	7.4714
4.69	7.52239
4.7	7.48225
4.71	7.47929
4.72	7.50331
4.73	7.5385
4.74	7.49508
4.75	7.46712
4.76	7.45923
4.77	7.44574
4.78	7.48784
4.79	7.53521
4.8	7.47469
4.81	7.49278
4.82	7.49738
4.83	7.55364
4.84	7.50824
4.85	7.51021
4.86	7.49377
4.87	7.49409
4.88	7.45495
4.89	7.42008
4.9	7.51021
4.91	7.48817
4.92	7.43883
4.93	7.4612
4.94	7.44541
4.95	7.41975
4.96	7.40857
4.97	7.46021
4.98	7.46909
4.99	7.4862
5	7.42337
5.01	7.47567
5.02	7.43291
5.03	7.37666
5.04	7.42534
5.05	7.4714
5.06	7.4283
5.07	7.39837
5.08	7.40495
5.09	7.38718
5.1	7.38883
5.11	7.45429
5.12	7.39311
5.13	7.43192
5.14	7.43126
5.15	7.44311
5.16	7.42863
5.17	7.39113
5.18	7.3987
5.19	7.39705
5.2	7.39541
5.21	7.41646
5.22	7.40067
5.23	7.34639
5.24	7.40955
5.25	7.43159
5.26	7.40528
5.27	7.41942
5.28	7.38521
5.29	7.30922
5.3	7.29672
5.31	7.42797
5.32	7.40791
5.33	7.41745
5.34	7.39541
5.35	7.38751
5.36	7.41876
5.37	7.38028
5.38	7.37929
5.39	7.37567
5.4	7.39442
5.41	7.37962
5.42	7.3635
5.43	7.35297
5.44	7.34804
5.45	7.4533
5.46	7.44344
5.47	7.31284
5.48	7.40067
5.49	7.37666
5.5	7.38817
5.51	7.38159
5.52	7.34245
5.53	7.36646
5.54	7.36449
5.55	7.31449
5.56	7.34343
5.57	7.37567
5.58	7.32797
5.59	7.34672
5.6	7.32995
5.61	7.27731
5.62	7.26646
5.63	7.35988
5.64	7.3158
5.65	7.30198
5.66	7.31152
5.67	7.31481
5.68	7.32205
5.69	7.26251
5.7	7.32271
5.71	7.39804
5.72	7.31613
5.73	7.33718
5.74	7.33488
5.75	7.36087
5.76	7.27797
5.77	7.26481
5.78	7.28948
5.79	7.30889
5.8	7.33258
5.81	7.25725
5.82	7.27567
5.83	7.30495
5.84	7.33356
5.85	7.32501
5.86	7.28323
5.87	7.23586
5.88	7.27238
5.89	7.24442
5.9	7.26185
5.91	7.24902
5.92	7.22863
5.93	7.22929
5.94	7.25758
5.95	7.28488
5.96	7.29212
5.97	7.27205
5.98	7.26909
5.99	7.25264
6	7.26054
6.01	7.24442
6.02	7.24508
6.03	7.24508
6.04	7.2704
6.05	7.23915
6.06	7.25988
6.07	7.23126
6.08	7.2658
6.09	7.26547
6.1	7.23718
6.11	7.251
6.12	7.24902
6.13	7.23455
6.14	7.26119
6.15	7.26679
6.16	7.24738
6.17	7.24672
6.18	7.29179
6.19	7.25725
6.2	7.24902
6.21	7.18389
6.22	7.27633
6.23	7.28093
6.24	7.25462
6.25	7.25462
6.26	7.21777
6.27	7.18257
6.28	7.22369
6.29	7.26843
6.3	7.23027
6.31	7.20494
6.32	7.17501
6.33	7.22304
6.34	7.23521
6.35	7.19507
6.36	7.24606
6.37	7.21218
6.38	7.19869
6.39	7.18849
6.4	7.23488
6.41	7.15922
6.42	7.17567
6.43	7.20165
6.44	7.18718
6.45	7.18652
6.46	7.19047
6.47	7.13849
6.48	7.13816
6.49	7.21744
6.5	7.15034
6.51	7.19277
6.52	7.17501
6.53	7.17896
6.54	7.15659
6.55	7.12501
6.56	7.16119
6.57	7.1579
6.58	7.17599
6.59	7.16514
6.6	7.16152
6.61	7.16349
6.62	7.15724
6.63	7.17567
6.64	7.1931
6.65	7.15692
6.66	7.17172
6.67	7.10757
6.68	7.1283
6.69	7.1079
6.7	7.14277
6.71	7.11711
6.72	7.1658
6.73	7.13356
6.74	7.13948
6.75	7.13652
6.76	7.10757
6.77	7.09244
6.78	7.15198
6.79	7.13652
6.8	7.18751
6.81	7.05954
6.82	7.0977
6.83	7.11086
6.84	7.11612
6.85	7.11415
6.86	7.11645
6.87	7.12895
6.88	7.09244
6.89	7.12928
6.9	7.1477
6.91	7.12435
6.92	7.09869
6.93	7.09869
6.94	7.15757
6.95	7.1033
6.96	7.09836
6.97	7.1158
6.98	7.08783
6.99	7.05329
7	7.08882
7.01	7.11415
7.02	7.07698
7.03	7.09014
7.04	7.09968
7.05	7.05428
7.06	7.02204
7.07	7.0681
7.08	7.06053
7.09	7.09047
7.1	7.08356
7.11	7.08586
7.12	7.08158
7.13	7.07139
7.14	7.05593
7.15	7.06547
7.16	7.02994
7.17	7.03389
7.18	7.04474
7.19	7.09178
7.2	7.01842
7.21	7.06053
7.22	7.06448
7.23	7.01415
7.24	7.04737
7.25	7.00954
7.26	7.04869
7.27	7.03586
7.28	7.04244
7.29	6.99737
7.3	6.99704
7.31	7.06152
7.32	7.02698
7.33	7.04343
7.34	7.01908
7.35	7.04441
7.36	7.07698
7.37	7.06086
7.38	7.08981
7.39	7.01316
7.4	7.01777
7.41	7.00428
7.42	7.05757
7.43	7.03981
7.44	7.01349
7.45	7.0454
7.46	6.99112
7.47	6.99507
7.48	7.00724
7.49	7.02369
7.5	7.03158
7.51	7.02599
7.52	6.98388
7.53	6.99902
7.54	7.04935
7.55	7.00921
7.56	6.99573
7.57	6.99277
7.58	7.01283
7.59	6.99704
7.6	6.98849
7.61	7.05329
7.62	7.01086
7.63	7.00362
7.64	7.0352
7.65	6.98487
7.66	6.97599
7.67	7.01514
7.68	6.99935
7.69	7.02171
7.7	7.03158
7.71	7.00428
7.72	6.99836
7.73	7.00395
7.74	6.97961
7.75	6.95033
7.76	6.96579
7.77	6.95954
7.78	6.97599
7.79	6.97928
7.8	6.97698
7.81	6.99836
7.82	6.97171
7.83	6.98586
7.84	7.02073
7.85	6.98388
7.86	7.00263
7.87	6.97369
7.88	6.94178
7.89	6.97303
7.9	7.03093
7.91	6.99046
7.92	6.97402
7.93	6.95494
7.94	6.975
7.95	6.97106
7.96	6.99671
7.97	6.97599
7.98	6.92862
7.99	6.93849
8	6.975
8.01	6.93487
8.02	6.97402
8.03	7.01777
8.04	6.94902
8.05	6.97566
8.06	6.97698
8.07	6.94638
8.08	6.95198
8.09	7.00658
8.1	7.0056
8.11	6.95724
8.12	6.91744
8.13	6.96875
8.14	6.92895
8.15	6.92401
8.16	6.91283
8.17	6.93915
8.18	6.97073
8.19	6.94836
8.2	6.91645
8.21	6.92994
8.22	6.94375
8.23	6.94408
8.24	6.90362
8.25	6.98323
8.26	6.92336
8.27	6.96546
8.28	6.91053
8.29	6.94507
8.3	6.92599
8.31	6.93684
8.32	6.93191
8.33	6.93882
8.34	6.93948
8.35	6.89408
8.36	6.95099
8.37	6.91645
8.38	6.92796
8.39	6.93059
8.4	6.93948
8.41	6.89441
8.42	6.9
8.43	6.91776
8.44	6.92862
8.45	6.90658
8.46	6.90296
8.47	6.9204
8.48	6.86349
8.49	6.88355
8.5	6.92434
8.51	6.93553
8.52	6.93224
8.53	6.93849
8.54	6.96612
8.55	6.90197
8.56	6.92665
8.57	6.97599
8.58	6.925
8.59	6.92138
8.6	6.93158
8.61	6.88454
8.62	6.86414
8.63	6.84474
8.64	6.92401
8.65	6.96316
8.66	6.93059
8.67	6.89803
8.68	6.90559
8.69	6.90132
8.7	6.89112
8.71	6.87862
8.72	6.87434
8.73	6.85822
8.74	6.84506
8.75	6.86908
8.76	6.88125
8.77	6.90855
8.78	6.86513
8.79	6.84375
8.8	6.82697
8.81	6.86579
8.82	6.87105
8.83	6.89243
8.84	6.87007
8.85	6.88355
8.86	6.8671
8.87	6.85197
8.88	6.88355
8.89	6.86612
8.9	6.85033
8.91	6.87039
8.92	6.92665
8.93	6.89211
8.94	6.88158
8.95	6.8602
8.96	6.86743
8.97	6.87993
8.98	6.94112
8.99	6.87928
9	6.875
9.01	6.8546
9.02	6.88783
9.03	6.84737
9.04	6.89112
9.05	6.88487
9.06	6.86217
9.07	6.84901
9.08	6.85625
9.09	6.85625
9.1	6.8148
9.11	6.79572
9.12	6.86941
9.13	6.82138
9.14	6.84671
9.15	6.87664
9.16	6.82006
9.17	6.8273
9.18	6.82664
9.19	6.80855
9.2	6.86349
9.21	6.81612
9.22	6.84572
9.23	6.83059
9.24	6.84638
9.25	6.82434
9.26	6.85066
9.27	6.87401
9.28	6.82829
9.29	6.84671
9.3	6.87368
9.31	6.825
9.32	6.81974
9.33	6.82467
9.34	6.78125
9.35	6.78158
9.36	6.77631
9.37	6.76973
9.38	6.78026
9.39	6.81809
9.4	6.83158
9.41	6.85428
9.42	6.81677
9.43	6.78059
9.44	6.80921
9.45	6.79375
9.46	6.8171
9.47	6.85066
9.48	6.79112
9.49	6.81217
9.5	6.77927
9.51	6.83454
9.52	6.76776
9.53	6.79013
9.54	6.79441
9.55	6.78388
9.56	6.84638
9.57	6.79901
9.58	6.8546
9.59	6.7977
9.6	6.78914
9.61	6.80296
9.62	6.80723
9.63	6.78552
9.64	6.77171
9.65	6.8148
9.66	6.79934
9.67	6.80296
9.68	6.80855
9.69	6.79441
9.7	6.77006
9.71	6.76052
9.72	6.79868
9.73	6.81118
9.74	6.80625
9.75	6.7796
9.76	6.78256
9.77	6.78421
9.78	6.76052
9.79	6.77533
9.8	6.78125
9.81	6.77533
9.82	6.74276
9.83	6.73026
9.84	6.77862
9.85	6.73322
9.86	6.75658
9.87	6.77237
9.88	6.78717
9.89	6.79605
9.9	6.78191
9.91	6.79408
9.92	6.8023
9.93	6.75526
9.94	6.73223
9.95	6.74111
9.96	6.74835
9.97	6.7773
9.98	6.70986
9.99	6.72171
10	6.73519
10.01	6.77237
10.02	6.71875
10.03	6.70361
10.04	6.74375
10.05	6.77533
10.06	6.77993
10.07	6.78848
10.08	6.75954
10.09	6.72927
10.1	6.78125
10.11	6.7375
10.12	6.77237
10.13	6.74309
10.14	6.74046
10.15	6.81217
10.16	6.82401
10.17	6.73552
10.18	6.76447
10.19	6.72598
10.2	6.70789
10.21	6.74736
10.22	6.70296
10.23	6.75954
10.24	6.73552
10.25	6.76217
10.26	6.74901
10.27	6.77138
10.28	6.77434
10.29	6.72368
10.3	6.73717
10.31	6.76677
10.32	6.75394
10.33	6.77138
10.34	6.74835
10.35	6.72829
10.36	6.71973
10.37	6.70888
10.38	6.75394
10.39	6.71019
10.4	6.73947
10.41	6.73651
10.42	6.71118
10.43	6.69802
10.44	6.69111
10.45	6.69835
10.46	6.70921
10.47	6.72269
10.48	6.7319
10.49	6.74539
10.5	6.65295
10.51	6.69802
10.52	6.73783
10.53	6.73486
10.54	6.73783
10.55	6.7023
10.56	6.71019
10.57	6.74013
10.58	6.72631
10.59	6.7421
10.6	6.69934
10.61	6.69934
10.62	6.70657
10.63	6.7069
10.64	6.73717
10.65	6.69276
10.66	6.73651
10.67	6.72861
10.68	6.7375
10.69	6.68914
10.7	6.71776
10.71	6.7046
10.72	6.68092
10.73	6.64703
10.74	6.68388
10.75	6.67467
10.76	6.67598
10.77	6.75723
10.78	6.74671
10.79	6.69671
10.8	6.68815
10.81	6.66282
10.82	6.71513
10.83	6.73519
10.84	6.69605
10.85	6.66348
10.86	6.67828
10.87	6.69934
10.88	6.70065
10.89	6.72335
10.9	6.65624
10.91	6.72138
10.92	6.69769
10.93	6.71907
10.94	6.6694
10.95	6.68124
10.96	6.68684
10.97	6.66611
10.98	6.63815
10.99	6.6467
11	6.70657
11.01	6.68881
11.02	6.73158
11.03	6.69078
11.04	6.67467
11.05	6.64506
11.06	6.66644
11.07	6.68618
11.08	6.69013
11.09	6.68355
11.1	6.70427
11.11	6.6671
11.12	6.68223
11.13	6.60591
11.14	6.62927
11.15	6.65592
11.16	6.64243
11.17	6.65131
11.18	6.64703
11.19	6.64638
11.2	6.66842
11.21	6.67927
11.22	6.72039
11.23	6.66348
11.24	6.6921
11.25	6.73815
11.26	6.6898
11.27	6.66973
11.28	6.72532
11.29	6.67532
11.3	6.61118
11.31	6.68355
11.32	6.70888
11.33	6.7171
11.34	6.68157
11.35	6.71019
11.36	6.65953
11.37	6.67467
11.38	6.68355
11.39	6.67532
11.4	6.68585
11.41	6.64473
11.42	6.72006
11.43	6.65756
11.44	6.65131
11.45	6.69506
11.46	6.62236
11.47	6.63322
11.48	6.60032
11.49	6.61315
11.5	6.68059
11.51	6.7171
11.52	6.63322
11.53	6.60526
11.54	6.6546
11.55	6.60855
11.56	6.61677
11.57	6.59868
11.58	6.65427
11.59	6.65263
11.6	6.64999
11.61	6.67138
11.62	6.70723
11.63	6.65263
11.64	6.64078
11.65	6.65789
11.66	6.62532
11.67	6.66513
11.68	6.65065
11.69	6.66513
11.7	6.67763
11.71	6.6694
11.72	6.6273
11.73	6.66644
11.74	6.62664
11.75	6.63519
11.76	6.6421
11.77	6.6342
11.78	6.59637
11.79	6.60624
11.8	6.61348
11.81	6.63585
11.82	6.66513
11.83	6.62664
11.84	6.62993
11.85	6.64605
11.86	6.60295
11.87	6.59769
11.88	6.57664
11.89	6.55196
11.9	6.64407
11.91	6.65624
11.92	6.63618
11.93	6.63289
11.94	6.67796
11.95	6.61085
11.96	6.5717
11.97	6.60098
11.98	6.60558
11.99	6.62532
12	6.59637
12.01	6.60262
12.02	6.63651
12.03	6.58815
12.04	6.60295
12.05	6.56479
12.06	6.59933
12.07	6.63585
12.08	6.67072
12.09	6.62631
12.1	6.66052
12.11	6.64868
12.12	6.6273
12.13	6.59999
12.14	6.61019
12.15	6.63881
12.16	6.59637
12.17	6.59933
12.18	6.65657
12.19	6.65822
12.2	6.61545
12.21	6.59243
12.22	6.56907
12.23	6.6398
12.24	6.62434
12.25	6.57894
12.26	6.58618
12.27	6.61512
12.28	6.57302
12.29	6.61611
12.3	6.60262
12.31	6.60493
12.32	6.64901
12.33	6.68782
12.34	6.61381
12.35	6.5717
12.36	6.5944
12.37	6.59999
12.38	6.55624
12.39	6.6023
12.4	6.65098
12.41	6.62927
12.42	6.56085
12.43	6.56611
12.44	6.57861
12.45	6.59999
12.46	6.58947
12.47	6.61381
12.48	6.61776
12.49	6.62105
12.5	6.65032
12.51	6.58124
12.52	6.57499
12.53	6.57039
12.54	6.54539
12.55	6.5842
12.56	6.60328
12.57	6.66414
12.58	6.61381
12.59	6.6092
12.6	6.59276
12.61	6.59012
12.62	6.63749
12.63	6.62795
12.64	6.62993
12.65	6.56545
12.66	6.54012
12.67	6.62499
12.68	6.57631
12.69	6.56282
12.7	6.57828
12.71	6.58157
12.72	6.55493
12.73	6.57598
12.74	6.54999
12.75	6.57499
12.76	6.59407
12.77	6.56183
12.78	6.56479
12.79	6.54473
12.8	6.59539
12.81	6.57894
12.82	6.55295
12.83	6.6171
12.84	6.57828
12.85	6.58683
12.86	6.51973
12.87	6.54769
12.88	6.52335
12.89	6.56315
12.9	6.59374
12.91	6.53223
12.92	6.55953
12.93	6.56907
12.94	6.49045
12.95	6.51677
12.96	6.58749
12.97	6.57762
12.98	6.61644
12.99	6.5717
13	6.53815
13.01	6.48617
13.02	6.58058
13.03	6.62269
13.04	6.57335
13.05	6.50986
13.06	6.5319
13.07	6.56381
13.08	6.56118
13.09	6.58124
13.1	6.5615
13.11	6.57697
13.12	6.56447
13.13	6.5546
13.14	6.55229
13.15	6.56874
13.16	6.54012
13.17	6.52499
13.18	6.56052
13.19	6.59605
13.2	6.57697
13.21	6.49834
13.22	6.48486
13.23	6.52927
13.24	6.56775
13.25	6.54933
13.26	6.58026
13.27	6.53716
13.28	6.54966
13.29	6.5115
13.3	6.55032
13.31	6.55887
13.32	6.58716
13.33	6.54999
13.34	6.54999
13.35	6.56907
13.36	6.54144
13.37	6.56348
13.38	6.54999
13.39	6.54571
13.4	6.55229
13.41	6.53124
13.42	6.52762
13.43	6.56545
13.44	6.58157
13.45	6.5319
13.46	6.59144
13.47	6.55131
13.48	6.56512
13.49	6.51874
13.5	6.55887
13.51	6.59901
13.52	6.54868
13.53	6.549
13.54	6.58256
13.55	6.54736
13.56	6.59276
13.57	6.55229
13.58	6.5444
13.59	6.52696
13.6	6.51545
13.61	6.62203
13.62	6.56052
13.63	6.51742
13.64	6.52104
13.65	6.52927
13.66	6.54144
13.67	6.5421
13.68	6.57729
13.69	6.5296
13.7	6.52598
13.71	6.56545
13.72	6.54308
13.73	6.56743
13.74	6.56348
13.75	6.57598
13.76	6.51249
13.77	6.52302
13.78	6.53289
13.79	6.51348
13.8	6.51413
13.81	6.5717
13.82	6.50953
13.83	6.49045
13.84	6.50229
13.85	6.52729
13.86	6.61052
13.87	6.57828
13.88	6.53585
13.89	6.47795
13.9	6.52236
13.91	6.53387
13.92	6.50723
13.93	6.47927
13.94	6.54177
13.95	6.55756
13.96	6.48058
13.97	6.53617
13.98	6.56381
13.99	6.56545
14	6.52795
14.01	6.49736
14.02	6.51348
14.03	6.4513
14.04	6.52236
14.05	6.50821
14.06	6.54703
14.07	6.52762
14.08	6.474
14.09	6.52795
14.1	6.55164
14.11	6.56183
14.12	6.53453
14.13	6.47828
14.14	6.48091
14.15	6.50492
14.16	6.51348
14.17	6.51315
14.18	6.53486
14.19	6.57269
14.2	6.51315
14.21	6.53058
14.22	6.48321
14.23	6.53946
14.24	6.50953
14.25	6.51315
14.26	6.51348
14.27	6.45624
14.28	6.47992
14.29	6.52565
14.3	6.50229
14.31	6.48552
14.32	6.48453
14.33	6.52104
14.34	6.44111
14.35	6.47071
14.36	6.52532
14.37	6.53025
14.38	6.549
14.39	6.50328
14.4	6.4569
14.41	6.52499
14.42	6.5296
14.43	6.48256
14.44	6.55624
14.45	6.5467
14.46	6.52598
14.47	6.51348
14.48	6.46874
14.49	6.50887
14.5	6.50328
14.51	6.52565
14.52	6.51117
14.53	6.52729
14.54	6.48486
14.55	6.51479
14.56	6.48815
14.57	6.49407
14.58	6.49703
14.59	6.51216
14.6	6.52532
14.61	6.51446
14.62	6.54144
14.63	6.524
14.64	6.48716
14.65	6.47565
14.66	6.53716
14.67	6.53124
14.68	6.49933
14.69	6.57762
14.7	6.49473
14.71	6.46874
14.72	6.474
14.73	6.48815
14.74	6.50525
14.75	6.51841
14.76	6.46578
14.77	6.49242
14.78	6.50163
14.79	6.50032
14.8	6.46051
14.81	6.43157
14.82	6.45755
14.83	6.43124
14.84	6.4615
14.85	6.49275
14.86	6.49078
14.87	6.48913
14.88	6.43913
14.89	6.51775
14.9	6.5069
14.91	6.49769
14.92	6.49834
14.93	6.51479
14.94	6.46611
14.95	6.47795
14.96	6.51874
14.97	6.48486
14.98	6.50427
14.99	6.52071
15	6.50032
15.01	6.45426
15.02	6.45426
15.03	6.52795
15.04	6.4842
15.05	6.48584
15.06	6.53256
15.07	6.48979
15.08	6.53124
15.09	6.49966
15.1	6.49275
15.11	6.50821
15.12	6.53683
15.13	6.48617
15.14	6.49571
15.15	6.48321
15.16	6.46183
15.17	6.49506
15.18	6.50032
15.19	6.52828
15.2	6.50788
15.21	6.46644
15.22	6.49407
15.23	6.48157
15.24	6.48979
15.25	6.51973
15.26	6.50657
15.27	6.48486
15.28	6.49341
15.29	6.49177
15.3	6.46644
15.31	6.4638
15.32	6.47598
15.33	6.4717
15.34	6.4638
15.35	6.46907
15.36	6.45394
15.37	6.49275
15.38	6.50131
15.39	6.50163
15.4	6.52137
15.41	6.47433
15.42	6.50986
15.43	6.4967
15.44	6.47005
15.45	6.51578
15.46	6.49144
15.47	6.48124
15.48	6.48815
15.49	6.45196
15.5	6.47762
15.51	6.50591
15.52	6.46644
15.53	6.42104
15.54	6.46249
15.55	6.47927
15.56	6.45163
15.57	6.49506
15.58	6.4467
15.59	6.44604
15.6	6.41841
15.61	6.48091
15.62	6.50558
15.63	6.51644
15.64	6.5296
15.65	6.49802
15.66	6.42663
15.67	6.48519
15.68	6.48716
15.69	6.49242
15.7	6.44867
15.71	6.46611
15.72	6.45657
15.73	6.48552
15.74	6.49209
15.75	6.49571
15.76	6.4967
15.77	6.43222
15.78	6.47762
15.79	6.46644
15.8	6.44604
15.81	6.46117
15.82	6.44275
15.83	6.46874
15.84	6.45229
15.85	6.40986
15.86	6.46545
15.87	6.47532
15.88	6.47565
15.89	6.48519
15.9	6.46512
15.91	6.47795
15.92	6.47499
15.93	6.44933
15.94	6.42696
15.95	6.45295
15.96	6.40032
15.97	6.42696
15.98	6.48025
15.99	6.48552
16	6.46742
16.01	6.4513
16.02	6.4467
16.03	6.45723
16.04	6.50492
16.05	6.54275
16.06	6.5467
16.07	6.45394
16.08	6.5092
16.09	6.46644
16.1	6.41545
16.11	6.48387
16.12	6.45163
16.13	6.45196
16.14	6.47861
16.15	6.52532
16.16	6.47236
16.17	6.4365
16.18	6.46808
16.19	6.4263
16.2	6.45525
16.21	6.45098
16.22	6.4444
16.23	6.44144
16.24	6.48716
16.25	6.41676
16.26	6.40953
16.27	6.45887
16.28	6.47334
16.29	6.47861
16.3	6.45361
16.31	6.46545
16.32	6.42926
16.33	6.39834
16.34	6.44834
16.35	6.43091
16.36	6.45723
16.37	6.44801
16.38	6.48946
16.39	6.48091
16.4	6.46315
16.41	6.43782
16.42	6.46117
16.43	6.47565
16.44	6.45591
16.45	6.48223
16.46	6.52729
16.47	6.42466
16.48	6.43683
16.49	6.51183
16.5	6.43584
16.51	6.44505
16.52	6.46348
16.53	6.46084
16.54	6.47959
16.55	6.43486
16.56	6.45887
16.57	6.49144
16.58	6.43091
16.59	6.47696
16.6	6.45821
16.61	6.41512
16.62	6.449
16.63	6.43749
16.64	6.49703
16.65	6.42795
16.66	6.44275
16.67	6.4263
16.68	6.39801
16.69	6.4013
16.7	6.40821
16.71	6.39341
16.72	6.49177
16.73	6.4342
16.74	6.42005
16.75	6.45986
16.76	6.4819
16.77	6.43551
16.78	6.41874
16.79	6.44604
16.8	6.46611
16.81	6.45723
16.82	6.40591
16.83	6.47696
16.84	6.44341
16.85	6.41117
16.86	6.38683
16.87	6.38847
16.88	6.45591
16.89	6.45098
16.9	6.42597
16.91	6.46084
16.92	6.50065
16.93	6.42532
16.94	6.45459
16.95	6.4717
16.96	6.4513
16.97	6.42696
16.98	6.4615
16.99	6.49571
17	6.46315
17.01	6.44473
17.02	6.43683
17.03	6.44242
17.04	6.44078
17.05	6.40854
17.06	6.41874
17.07	6.44473
17.08	6.42861
17.09	6.41018
17.1	6.44341
17.11	6.38749
17.12	6.44341
17.13	6.39933
17.14	6.40525
17.15	6.44144
17.16	6.4263
17.17	6.44637
17.18	6.45196
17.19	6.43815
17.2	6.42532
17.21	6.4013
17.22	6.41413
17.23	6.44867
17.24	6.43321
17.25	6.43157
17.26	6.41578
17.27	6.41512
17.28	6.41841
17.29	6.41347
17.3	6.40821
17.31	6.3786
17.32	6.40558
17.33	6.41676
17.34	6.44308
17.35	6.47499
17.36	6.4569
17.37	6.42203
17.38	6.42466
17.39	6.46216
17.4	6.39736
17.41	6.41676
17.42	6.39176
17.43	6.44209
17.44	6.42367
17.45	6.4638
17.46	6.42236
17.47	6.37499
17.48	6.39439
17.49	6.41578
17.5	6.45723
17.51	6.42104
17.52	6.41216
17.53	6.45295
17.54	6.44308
17.55	6.39933
17.56	6.44604
17.57	6.48354
17.58	6.39439
17.59	6.47565
17.6	6.42959
17.61	6.4138
17.62	6.41874
17.63	6.43683
17.64	6.40426
17.65	6.38387
17.66	6.41676
17.67	6.43946
17.68	6.38288
17.69	6.35788
17.7	6.46512
17.71	6.41709
17.72	6.39275
17.73	6.43354
17.74	6.45163
17.75	6.42499
17.76	6.41315
17.77	6.42104
17.78	6.43124
17.79	6.41347
17.8	6.40229
17.81	6.40657
17.82	6.43551
17.83	6.40229
17.84	6.46216
17.85	6.43453
17.86	6.44176
17.87	6.40722
17.88	6.43551
17.89	6.4592
17.9	6.42071
17.91	6.37992
17.92	6.41841
17.93	6.44571
17.94	6.39604
17.95	6.42762
17.96	6.38584
17.97	6.37499
17.98	6.44966
17.99	6.48716
18	6.40032
18.01	6.41611
18.02	6.40393
18.03	6.42532
18.04	6.39966
18.05	6.45163
18.06	6.43782
18.07	6.43584
18.08	6.37696
18.09	6.39933
18.1	6.38157
18.11	6.41347
18.12	6.38091
18.13	6.40525
18.14	6.36742
18.15	6.42236
18.16	6.39768
18.17	6.37729
18.18	6.40854
18.19	6.38354
18.2	6.41347
18.21	6.38518
18.22	6.40591
18.23	6.41446
18.24	6.38091
18.25	6.41479
18.26	6.38584
18.27	6.40229
18.28	6.40657
18.29	6.40591
18.3	6.44341
18.31	6.39078
18.32	6.39703
18.33	6.43255
18.34	6.4013
18.35	6.39439
18.36	6.37499
18.37	6.40755
18.38	6.4467
18.39	6.40657
18.4	6.42532
18.41	6.41512
18.42	6.41808
18.43	6.40196
18.44	6.36676
18.45	6.3365
18.46	6.37532
18.47	6.39834
18.48	6.3842
18.49	6.36874
18.5	6.37203
18.51	6.35821
18.52	6.40262
18.53	6.37071
18.54	6.36907
18.55	6.399
18.56	6.41578
18.57	6.40393
18.58	6.44473
18.59	6.42565
18.6	6.34637
18.61	6.38058
18.62	6.42071
18.63	6.43683
18.64	6.39374
18.65	6.3865
18.66	6.37729
18.67	6.41282
18.68	6.38782
18.69	6.3467
18.7	6.38091
18.71	6.3536
18.72	6.40722
18.73	6.45394
18.74	6.3967
18.75	6.39736
18.76	6.40821
18.77	6.4092
18.78	6.39801
18.79	6.44209
18.8	6.41084
18.81	6.40722
18.82	6.36808
18.83	6.41183
18.84	6.41315
18.85	6.3615
18.86	6.35887
18.87	6.39604
18.88	6.39308
18.89	6.40722
18.9	6.41676
18.91	6.42565
18.92	6.45229
18.93	6.40032
18.94	6.40262
18.95	6.38716
18.96	6.42104
18.97	6.39308
18.98	6.36841
18.99	6.42828
19	6.36117
19.01	6.35788
19.02	6.36907
19.03	6.36084
19.04	6.43222
19.05	6.39834
19.06	6.39209
19.07	6.39472
19.08	6.40591
19.09	6.41216
19.1	6.34604
19.11	6.39472
19.12	6.41709
19.13	6.37762
19.14	6.3592
19.15	6.37334
19.16	6.40854
19.17	6.37597
19.18	6.36676
19.19	6.41347
19.2	6.4115
19.21	6.40426
19.22	6.42433
19.23	6.40887
19.24	6.40426
19.25	6.37104
19.26	6.36249
19.27	6.38354
19.28	6.37663
19.29	6.37696
19.3	6.38025
19.31	6.39341
19.32	6.39341
19.33	6.36446
19.34	6.38255
19.35	6.39209
19.36	6.37795
19.37	6.35656
19.38	6.37762
19.39	6.40459
19.4	6.39472
19.41	6.40163
19.42	6.40229
19.43	6.31051
19.44	6.36281
19.45	6.41742
19.46	6.43222
19.47	6.39275
19.48	6.38551
19.49	6.37071
19.5	6.35163
19.51	6.37268
19.52	6.35393
19.53	6.40032
19.54	6.39374
19.55	6.38518
19.56	6.41479
19.57	6.41282
19.58	6.43222
19.59	6.40229
19.6	6.39045
19.61	6.41643
19.62	6.37597
19.63	6.34341
19.64	6.36314
19.65	6.38617
19.66	6.38683
19.67	6.33716
19.68	6.36413
19.69	6.33452
19.7	6.38288
19.71	6.39933
19.72	6.36084
19.73	6.35854
19.74	6.3717
19.75	6.39407
19.76	6.36545
19.77	6.3263
19.78	6.34472
19.79	6.37499
19.8	6.40459
19.81	6.40821
19.82	6.40097
19.83	6.3638
19.84	6.36578
19.85	6.40032
19.86	6.40032
19.87	6.40097
19.88	6.39308
19.89	6.39078
19.9	6.39308
19.91	6.37367
19.92	6.43617
19.93	6.40821
19.94	6.34538
19.95	6.33913
19.96	6.40295
19.97	6.35722
19.98	6.37663
19.99	6.39242
20	6.41117
20.01	6.38189
20.02	6.36183
20.03	6.36972
20.04	6.424
20.05	6.37696
20.06	6.34472
20.07	6.42203
20.08	6.36907
20.09	6.47038
20.1	6.36479
20.11	6.38354
20.12	6.35426
20.13	6.31972
20.14	6.37926
20.15	6.35393
20.16	6.38782
20.17	6.37268
20.18	6.39571
20.19	6.40953
20.2	6.33946
20.21	6.3263
20.22	6.39012
20.23	6.3842
20.24	6.38222
20.25	6.38124
20.26	6.37038
20.27	6.34077
20.28	6.36084
20.29	6.37729
20.3	6.44341
20.31	6.40525
20.32	6.37729
20.33	6.36446
20.34	6.39637
20.35	6.3967
20.36	6.35163
20.37	6.38551
20.38	6.35985
20.39	6.349
20.4	6.32367
20.41	6.3365
20.42	6.32531
20.43	6.31248
20.44	6.38946
20.45	6.3388
20.46	6.31939
20.47	6.374
20.48	6.4115
20.49	6.41545
20.5	6.39966
20.51	6.30097
20.52	6.35097
20.53	6.34308
20.54	6.38814
20.55	6.32301
20.56	6.3365
20.57	6.37334
20.58	6.35163
20.59	6.37795
20.6	6.39209
20.61	6.38058
20.62	6.36775
20.63	6.35722
20.64	6.38354
20.65	6.39308
20.66	6.34472
20.67	6.34242
20.68	6.36117
20.69	6.36479
20.7	6.36216
20.71	6.37268
20.72	6.36775
20.73	6.32696
20.74	6.37334
20.75	6.33551
20.76	6.34143
20.77	6.41775
20.78	6.38913
20.79	6.40426
20.8	6.37992
20.81	6.35097
20.82	6.37433
20.83	6.31512
20.84	6.34242
20.85	6.31841
20.86	6.36281
20.87	6.36183
20.88	6.37762
20.89	6.40196
20.9	6.349
20.91	6.35624
20.92	6.39571
20.93	6.36084
20.94	6.3217
20.95	6.36907
20.96	6.3763
20.97	6.37795
20.98	6.34867
20.99	6.349
21	6.35229
21.01	6.33189
21.02	6.37301
21.03	6.35722
21.04	6.41479
21.05	6.36479
21.06	6.35097
21.07	6.38617
21.08	6.39209
21.09	6.40986
21.1	6.32959
21.11	6.36183
21.12	6.38485
21.13	6.33979
21.14	6.39801
21.15	6.38222
21.16	6.37696
21.17	6.38847
21.18	6.37268
21.19	6.33354
21.2	6.37005
21.21	6.39472
21.22	6.40163
21.23	6.39439
21.24	6.33617
21.25	6.34834
21.26	6.39275
21.27	6.41742
21.28	6.40788
21.29	6.40821
21.3	6.36479
21.31	6.32071
21.32	6.39834
21.33	6.38091
21.34	6.3217
21.35	6.39637
21.36	6.38683
21.37	6.34077
21.38	6.35821
21.39	6.34768
21.4	6.35656
21.41	6.36578
21.42	6.36314
21.43	6.34012
21.44	6.32531
21.45	6.44111
21.46	6.39472
21.47	6.38551
21.48	6.42071
21.49	6.35722
21.5	6.33683
21.51	6.37466
21.52	6.42959
21.53	6.37071
21.54	6.349
21.55	6.39999
21.56	6.34341
21.57	6.34637
21.58	6.39045
21.59	6.33025
21.6	6.34045
21.61	6.3865
21.62	6.34045
21.63	6.33716
21.64	6.3638
21.65	6.41347
21.66	6.39933
21.67	6.3342
21.68	6.30755
21.69	6.33913
21.7	6.35558
21.71	6.3717
21.72	6.3615
21.73	6.30459
21.74	6.36545
21.75	6.3661
21.76	6.35097
21.77	6.38288
21.78	6.37795
21.79	6.38979
21.8	6.41183
21.81	6.38782
21.82	6.35887
21.83	6.374
21.84	6.33617
21.85	6.33749
21.86	6.35064
21.87	6.36117
21.88	6.31446
21.89	6.32005
21.9	6.32005
21.91	6.35295
21.92	6.35163
21.93	6.34242
21.94	6.32268
21.95	6.374
21.96	6.34999
21.97	6.31512
21.98	6.37466
21.99	6.3888
22	6.38518
22.01	6.34012
22.02	6.32466
22.03	6.35328
22.04	6.36117
22.05	6.36216
22.06	6.35163
22.07	6.38189
22.08	6.37104
22.09	6.35788
22.1	6.37104
22.11	6.38157
22.12	6.32235
22.13	6.39867
22.14	6.39999
22.15	6.32696
22.16	6.35064
22.17	6.37992
22.18	6.35295
22.19	6.31248
22.2	6.3342
22.21	6.37992
22.22	6.37828
22.23	6.41216
22.24	6.33288
22.25	6.27827
22.26	6.3638
22.27	6.34275
22.28	6.35558
22.29	6.38025
22.3	6.41018
22.31	6.3865
22.32	6.32531
22.33	6.29143
22.34	6.32268
22.35	6.35064
22.36	6.37038
22.37	6.35229
22.38	6.30854
22.39	6.34867
22.4	6.32531
22.41	6.32729
22.42	6.30591
22.43	6.31183
22.44	6.33913
22.45	6.34242
22.46	6.37828
22.47	6.39078
22.48	6.36775
22.49	6.32926
22.5	6.35097
22.51	6.32202
22.52	6.40722
22.53	6.35722
22.54	6.34012
22.55	6.37597
22.56	6.3967
22.57	6.36709
22.58	6.36446
22.59	6.33156
22.6	6.35031
22.61	6.3536
22.62	6.32893
22.63	6.3161
22.64	6.3342
22.65	6.34012
22.66	6.32795
22.67	6.34834
22.68	6.39571
22.69	6.32235
22.7	6.37959
22.71	6.3536
22.72	6.27663
22.73	6.34867
22.74	6.32301
22.75	6.3161
22.76	6.34933
22.77	6.34045
22.78	6.31676
22.79	6.30294
22.8	6.34999
22.81	6.30064
22.82	6.3263
22.83	6.35689
22.84	6.35426
22.85	6.35689
22.86	6.36314
22.87	6.35953
22.88	6.35558
22.89	6.33946
22.9	6.33617
22.91	6.27104
22.92	6.34538
22.93	6.3888
22.94	6.39209
22.95	6.41084
22.96	6.32531
22.97	6.34308
22.98	6.36676
22.99	6.37367
23	6.34012
23.01	6.33025
23.02	6.35722
23.03	6.29768
23.04	6.32696
23.05	6.31183
23.06	6.31873
23.07	6.34308
23.08	6.34834
23.09	6.35163
23.1	6.35821
23.11	6.38387
23.12	6.33749
23.13	6.32137
23.14	6.35689
23.15	6.34012
23.16	6.36347
23.17	6.34341
23.18	6.36216
23.19	6.34143
23.2	6.33222
23.21	6.33683
23.22	6.28683
23.23	6.32433
23.24	6.299
23.25	6.31906
23.26	6.34505
23.27	6.30426
23.28	6.34077
23.29	6.31084
23.3	6.34406
23.31	6.32564
23.32	6.36216
23.33	6.35591
23.34	6.35985
23.35	6.3342
23.36	6.33946
23.37	6.35031
23.38	6.32597
23.39	6.33584
23.4	6.34571
23.41	6.31742
23.42	6.35328
23.43	6.3615
23.44	6.32564
23.45	6.3217
23.46	6.34077
23.47	6.35887
23.48	6.30558
23.49	6.35558
23.5	6.33255
23.51	6.42005
23.52	6.36841
23.53	6.34801
23.54	6.34439
23.55	6.38189
23.56	6.31413
23.57	6.31775
23.58	6.29044
23.59	6.29209
23.6	6.3388
23.61	6.36314
23.62	6.31873
23.63	6.31314
23.64	6.33913
23.65	6.36216
23.66	6.31545
23.67	6.29966
23.68	6.3115
23.69	6.31446
23.7	6.3115
23.71	6.34768
23.72	6.35722
23.73	6.32268
23.74	6.37301
23.75	6.30426
23.76	6.33979
23.77	6.34571
23.78	6.30689
23.79	6.29669
23.8	6.38222
23.81	6.32597
23.82	6.31314
23.83	6.30722
23.84	6.3115
23.85	6.29768
23.86	6.27663
23.87	6.33749
23.88	6.32597
23.89	6.33091
23.9	6.34374
23.91	6.33584
23.92	6.32433
23.93	6.31479
23.94	6.33518
23.95	6.34472
23.96	6.27465
23.97	6.30459
23.98	6.33452
23.99	6.3786
24	6.35985
24.01	6.38025
24.02	6.34275
24.03	6.34735
24.04	6.34505
24.05	6.32893
24.06	6.28946
24.07	6.29242
24.08	6.32466
24.09	6.35624
24.1	6.33551
24.11	6.31512
24.12	6.30459
24.13	6.37663
24.14	6.31841
24.15	6.37301
24.16	6.32038
24.17	6.31084
24.18	6.32795
24.19	6.32433
24.2	6.32827
24.21	6.31216
24.22	6.32564
24.23	6.35788
24.24	6.36117
24.25	6.34966
24.26	6.32137
24.27	6.32202
24.28	6.30821
24.29	6.35229
24.3	6.33617
24.31	6.3411
24.32	6.35854
24.33	6.33584
24.34	6.32762
24.35	6.32038
24.36	6.3217
24.37	6.3161
24.38	6.29538
24.39	6.31545
24.4	6.34077
24.41	6.30426
24.42	6.33749
24.43	6.32202
24.44	6.34341
24.45	6.35722
24.46	6.34308
24.47	6.27038
24.48	6.29242
24.49	6.31577
24.5	6.33814
24.51	6.34406
24.52	6.31808
24.53	6.34143
24.54	6.32959
24.55	6.32729
24.56	6.32992
24.57	6.38518
24.58	6.37532
24.59	6.34768
24.6	6.30262
24.61	6.36216
24.62	6.36939
24.63	6.33518
24.64	6.32729
24.65	6.324
24.66	6.33716
24.67	6.30591
24.68	6.33979
24.69	6.31545
24.7	6.36018
24.71	6.35064
24.72	6.31117
24.73	6.31808
24.74	6.34637
24.75	6.35591
24.76	6.34472
24.77	6.31018
24.78	6.31841
24.79	6.32959
24.8	6.3365
24.81	6.35426
24.82	6.29801
24.83	6.25886
24.84	6.30952
24.85	6.30887
24.86	6.31742
24.87	6.30887
24.88	6.32268
24.89	6.32795
24.9	6.32235
24.91	6.34735
24.92	6.30952
24.93	6.32104
24.94	6.32367
24.95	6.349
24.96	6.30229
24.97	6.31545
24.98	6.36512
24.99	6.3536
25	6.36512
25.01	6.32531
25.02	6.30163
25.03	6.36578
25.04	6.3217
25.05	6.29867
25.06	6.3217
25.07	6.34834
25.08	6.28781
25.09	6.34571
25.1	6.37334
25.11	6.32696
25.12	6.35459
25.13	6.30525
25.14	6.31742
25.15	6.30985
25.16	6.30952
25.17	6.29012
25.18	6.37762
25.19	6.39604
25.2	6.31709
25.21	6.32005
25.22	6.34077
25.23	6.31873
25.24	6.38551
25.25	6.36479
25.26	6.3286
25.27	6.2911
25.28	6.35722
25.29	6.36939
25.3	6.33617
25.31	6.30887
25.32	6.33452
25.33	6.33913
25.34	6.39472
25.35	6.33781
25.36	6.29604
25.37	6.32564
25.38	6.38814
25.39	6.43847
25.4	6.34604
25.41	6.34308
25.42	6.34604
25.43	6.34604
25.44	6.36314
25.45	6.33946
25.46	6.31446
25.47	6.3536
25.48	6.3342
25.49	6.40591
25.5	6.37301
25.51	6.28551
25.52	6.34439
25.53	6.34999
25.54	6.3638
25.55	6.32235
25.56	6.34834
25.57	6.32893
25.58	6.34637
25.59	6.32762
25.6	6.31512
25.61	6.374
25.62	6.34308
25.63	6.30656
25.64	6.26347
25.65	6.30492
25.66	6.38716
25.67	6.34439
25.68	6.29242
25.69	6.39209
25.7	6.30952
25.71	6.35426
25.72	6.31216
25.73	6.30492
25.74	6.31347
25.75	6.29077
25.76	6.27334
25.77	6.33025
25.78	6.38058
25.79	6.33716
25.8	6.34406
25.81	6.33354
25.82	6.35591
25.83	6.32334
25.84	6.28617
25.85	6.33716
25.86	6.30558
25.87	6.31775
25.88	6.34505
25.89	6.34012
25.9	6.34637
25.91	6.30393
25.92	6.27696
25.93	6.28584
25.94	6.32762
25.95	6.28551
25.96	6.299
25.97	6.33058
25.98	6.34077
25.99	6.30821
26	6.29472
26.01	6.35953
26.02	6.32038
26.03	6.3513
26.04	6.37532
26.05	6.35031
26.06	6.31906
26.07	6.3388
26.08	6.29966
26.09	6.33946
26.1	6.37203
26.11	6.32433
26.12	6.31183
26.13	6.29505
26.14	6.37564
26.15	6.32729
26.16	6.32729
26.17	6.33913
26.18	6.36018
26.19	6.2786
26.2	6.26709
26.21	6.29242
26.22	6.2434
26.23	6.31512
26.24	6.35163
26.25	6.34801
26.26	6.33518
26.27	6.37729
26.28	6.36281
26.29	6.37137
26.3	6.36939
26.31	6.36578
26.32	6.38387
26.33	6.36084
26.34	6.30031
26.35	6.31545
26.36	6.33288
26.37	6.29867
26.38	6.29966
26.39	6.32137
26.4	6.34834
26.41	6.36249
26.42	6.36183
26.43	6.27038
26.44	6.27926
26.45	6.34045
26.46	6.31117
26.47	6.28551
26.48	6.28025
26.49	6.30558
26.5	6.28156
26.51	6.30426
26.52	6.34406
26.53	6.32268
26.54	6.34768
26.55	6.32104
26.56	6.29012
26.57	6.29012
26.58	6.33485
26.59	6.33354
26.6	6.34045
26.61	6.3365
26.62	6.31281
26.63	6.32038
26.64	6.37367
26.65	6.29373
26.66	6.32005
26.67	6.30919
26.68	6.35755
26.69	6.27794
26.7	6.25558
26.71	6.30393
26.72	6.2684
26.73	6.30656
26.74	6.30689
26.75	6.31051
26.76	6.33452
26.77	6.31084
26.78	6.24307
26.79	6.35295
26.8	6.33321
26.81	6.31939
26.82	6.30755
26.83	6.32038
26.84	6.32531
26.85	6.30623
26.86	6.31413
26.87	6.35196
26.88	6.29702
26.89	6.31676
26.9	6.32038
26.91	6.31446
26.92	6.28452
26.93	6.36347
26.94	6.3138
26.95	6.27597
26.96	6.3467
26.97	6.30985
26.98	6.2513
26.99	6.30229
27	6.33124
27.01	6.35426
27.02	6.33551
27.03	6.33288
27.04	6.30722
27.05	6.31183
27.06	6.3115
27.07	6.29077
27.08	6.28419
27.09	6.32235
27.1	6.30755
27.11	6.30919
27.12	6.30887
27.13	6.27663
27.14	6.34012
27.15	6.27301
27.16	6.29308
27.17	6.28946
27.18	6.31314
27.19	6.29176
27.2	6.28288
27.21	6.27301
27.22	6.31051
27.23	6.29077
27.24	6.3342
27.25	6.28913
27.26	6.30426
27.27	6.3013
27.28	6.25952
27.29	6.27893
27.3	6.29406
27.31	6.31314
27.32	6.29505
27.33	6.29308
27.34	6.28715
27.35	6.33946
27.36	6.28847
27.37	6.32301
27.38	6.31545
27.39	6.30393
27.4	6.27367
27.41	6.29373
27.42	6.30031
27.43	6.29275
27.44	6.38617
27.45	6.32071
27.46	6.31577
27.47	6.31051
27.48	6.35854
27.49	6.37795
27.5	6.31216
27.51	6.31347
27.52	6.33814
27.53	6.33946
27.54	6.35953
27.55	6.35854
27.56	6.33058
27.57	6.29998
27.58	6.27926
27.59	6.31808
27.6	6.36216
27.61	6.27301
27.62	6.31742
27.63	6.33354
27.64	6.29275
27.65	6.30196
27.66	6.26446
27.67	6.30294
27.68	6.29505
27.69	6.30591
27.7	6.27038
27.71	6.32137
27.72	6.34571
27.73	6.32893
27.74	6.36578
27.75	6.37268
27.76	6.27433
27.77	6.32926
27.78	6.31808
27.79	6.29702
27.8	6.32202
27.81	6.34637
27.82	6.30755
27.83	6.31117
27.84	6.29209
27.85	6.34867
27.86	6.33189
27.87	6.27104
27.88	6.25327
27.89	6.31479
27.9	6.3217
27.91	6.33913
27.92	6.30887
27.93	6.30591
27.94	6.299
27.95	6.2865
27.96	6.29143
27.97	6.32498
27.98	6.30623
27.99	6.32564
28	6.3513
28.01	6.32827
28.02	6.29735
28.03	6.30821
28.04	6.30722
28.05	6.31512
28.06	6.32235
28.07	6.29702
28.08	6.27762
28.09	6.31939
28.1	6.35064
28.11	6.34374
28.12	6.29143
28.13	6.27992
28.14	6.29012
28.15	6.3217
28.16	6.32433
28.17	6.33354
28.18	6.34768
28.19	6.28683
28.2	6.30919
28.21	6.28781
28.22	6.32104
28.23	6.29998
28.24	6.30262
28.25	6.3138
28.26	6.29702
28.27	6.33847
28.28	6.34308
28.29	6.33321
28.3	6.30229
28.31	6.28979
28.32	6.29209
28.33	6.33222
28.34	6.31808
28.35	6.35953
28.36	6.30919
28.37	6.27992
28.38	6.32795
28.39	6.35229
28.4	6.3263
28.41	6.28847
28.42	6.34505
28.43	6.3115
28.44	6.31972
28.45	6.29933
28.46	6.33321
28.47	6.34143
28.48	6.299
28.49	6.28781
28.5	6.28781
28.51	6.25985
28.52	6.29143
28.53	6.2138
28.54	6.28518
28.55	6.31347
28.56	6.31051
28.57	6.2661
28.58	6.28715
28.59	6.3161
28.6	6.25886
28.61	6.26018
28.62	6.28946
28.63	6.31709
28.64	6.29406
28.65	6.31413
28.66	6.3263
28.67	6.34933
28.68	6.30821
28.69	6.32367
28.7	6.35854
28.71	6.30887
28.72	6.34341
28.73	6.34275
28.74	6.34012
28.75	6.32334
28.76	6.3513
28.77	6.35525
28.78	6.32893
28.79	6.31479
28.8	6.27498
28.81	6.31347
28.82	6.32005
28.83	6.29768
28.84	6.2865
28.85	6.3217
28.86	6.35558
28.87	6.31841
28.88	6.34637
28.89	6.3786
28.9	6.31183
28.91	6.29242
28.92	6.29209
28.93	6.26248
28.94	6.274
28.95	6.27005
28.96	6.29472
28.97	6.34768
28.98	6.29801
28.99	6.32762
29	6.34176
29.01	6.34966
29.02	6.34341
29.03	6.33025
29.04	6.32301
29.05	6.3013
29.06	6.30755
29.07	6.33518
29.08	6.32926
29.09	6.32531
29.1	6.32992
29.11	6.30031
29.12	6.36413
29.13	6.32466
29.14	6.26972
29.15	6.30755
29.16	6.3263
29.17	6.32137
29.18	6.34308
29.19	6.28584
29.2	6.31643
29.21	6.30722
29.22	6.299
29.23	6.34966
29.24	6.36281
29.25	6.30591
29.26	6.29702
29.27	6.29242
29.28	6.30229
29.29	6.31545
29.3	6.32334
29.31	6.31808
29.32	6.33485
29.33	6.35064
29.34	6.32005
29.35	6.30163
29.36	6.33518
29.37	6.29373
29.38	6.30196
29.39	6.36281
29.4	6.31248
29.41	6.27893
29.42	6.26775
29.43	6.33255
29.44	6.34538
29.45	6.30064
29.46	6.27169
29.47	6.31216
29.48	6.31906
29.49	6.33716
29.5	6.25854
29.51	6.27367
29.52	6.27531
29.53	6.29538
29.54	6.2388
29.55	6.30755
29.56	6.34801
29.57	6.36709
29.58	6.33189
29.59	6.22465
29.6	6.26084
29.61	6.26808
29.62	6.25886
29.63	6.32104
29.64	6.29735
29.65	6.27334
29.66	6.25854
29.67	6.27136
29.68	6.26873
29.69	6.32202
29.7	6.34341
29.71	6.29571
29.72	6.27893
29.73	6.2865
29.74	6.32762
29.75	6.26511
29.76	6.25492
29.77	6.34209
29.78	6.3342
29.79	6.28518
29.8	6.29505
29.81	6.27334
29.82	6.26676
29.83	6.2661
29.84	6.3263
29.85	6.31018
29.86	6.29834
29.87	6.27827
29.88	6.35591
29.89	6.26183
29.9	6.30196
29.91	6.29077
29.92	6.35229
29.93	6.33814
29.94	6.299
29.95	6.2865
29.96	6.31117
29.97	6.32104
29.98	6.28847
29.99	6.27729
30	6.31972
30.01	6.33156
30.02	6.33847
30.03	6.29571
30.04	6.30492
30.05	6.28617
30.06	6.29801
30.07	6.29768
30.08	6.33584
30.09	6.30163
30.1	6.29538
30.11	6.27268
30.12	6.30492
30.13	6.26906
30.14	6.24604
30.15	6.26972
30.16	6.28419
30.17	6.3036
30.18	6.30262
30.19	6.27696
30.2	6.33617
30.21	6.30722
30.22	6.28551
30.23	6.2865
30.24	6.31972
30.25	6.29406
30.26	6.29998
30.27	6.29801
30.28	6.2888
30.29	6.27696
30.3	6.29571
30.31	6.28748
30.32	6.28715
30.33	6.27992
30.34	6.29801
30.35	6.29472
30.36	6.27465
30.37	6.24242
30.38	6.24834
30.39	6.31808
30.4	6.31479
30.41	6.35097
30.42	6.29768
30.43	6.26215
30.44	6.26643
30.45	6.33749
30.46	6.2786
30.47	6.31117
30.48	6.30623
30.49	6.2559
30.5	6.2786
30.51	6.28551
30.52	6.30558
30.53	6.31841
30.54	6.29867
30.55	6.28551
30.56	6.28748
30.57	6.26643
30.58	6.30558
30.59	6.29176
30.6	6.29077
30.61	6.27202
30.62	6.31972
30.63	6.28288
30.64	6.31281
30.65	6.31841
30.66	6.35492
30.67	6.33781
30.68	6.3615
30.69	6.28617
30.7	6.27136
30.71	6.31347
30.72	6.32334
30.73	6.30229
30.74	6.2536
30.75	6.3036
30.76	6.2911
30.77	6.30755
30.78	6.30985
30.79	6.26775
30.8	6.27729
30.81	6.30393
30.82	6.25952
30.83	6.24176
30.84	6.26808
30.85	6.30262
30.86	6.31183
30.87	6.28288
30.88	6.31084
30.89	6.349
30.9	6.31051
30.91	6.33551
30.92	6.30459
30.93	6.28222
30.94	6.27235
30.95	6.30985
30.96	6.28518
30.97	6.31051
30.98	6.28156
30.99	6.27696
31	6.28748
31.01	6.29143
31.02	6.35788
31.03	6.29801
31.04	6.29143
31.05	6.31841
31.06	6.29538
31.07	6.25952
31.08	6.30952
31.09	6.28847
31.1	6.28419
31.11	6.30327
31.12	6.29933
31.13	6.32202
31.14	6.26511
31.15	6.29998
31.16	6.27202
31.17	6.2684
31.18	6.28255
31.19	6.3115
31.2	6.32762
31.21	6.30919
31.22	6.31413
31.23	6.33321
31.24	6.28715
31.25	6.26873
31.26	6.36314
31.27	6.32301
31.28	6.28617
31.29	6.25525
31.3	6.30262
31.31	6.32433
31.32	6.31742
31.33	6.29373
31.34	6.27827
31.35	6.27202
31.36	6.32466
31.37	6.25788
31.38	6.26906
31.39	6.27202
31.4	6.30558
31.41	6.27597
31.42	6.23715
31.43	6.29933
31.44	6.29867
31.45	6.324
31.46	6.30459
31.47	6.30755
31.48	6.2888
31.49	6.29439
31.5	6.274
31.51	6.29604
31.52	6.27235
31.53	6.2763
31.54	6.34834
31.55	6.32564
31.56	6.27696
31.57	6.3036
31.58	6.31281
31.59	6.31248
31.6	6.31873
31.61	6.27301
31.62	6.29209
31.63	6.33387
31.64	6.32531
31.65	6.29143
31.66	6.28321
31.67	6.27762
31.68	6.32334
31.69	6.29143
31.7	6.29637
31.71	6.29472
31.72	6.29637
31.73	6.31841
31.74	6.2865
31.75	6.27169
31.76	6.27169
31.77	6.33387
31.78	6.33749
31.79	6.24176
31.8	6.2513
31.81	6.29209
31.82	6.3217
31.83	6.2684
31.84	6.29735
31.85	6.29768
31.86	6.3342
31.87	6.26709
31.88	6.33058
31.89	6.32992
31.9	6.28551
31.91	6.25722
31.92	6.27169
31.93	6.25886
31.94	6.23584
31.95	6.29834
31.96	6.33749
31.97	6.34439
31.98	6.27301
31.99	6.26413
32	6.28518
32.01	6.31972
32.02	6.31577
32.03	6.31446
32.04	6.31281
32.05	6.29735
32.06	6.31216
32.07	6.27827
32.08	6.22169
32.09	6.23847
32.1	6.28288
32.11	6.33288
32.12	6.30492
32.13	6.33288
32.14	6.30492
32.15	6.2865
32.16	6.27433
32.17	6.2684
32.18	6.3161
32.19	6.29604
32.2	6.29472
32.21	6.28452
32.22	6.28058
32.23	6.3513
32.24	6.36676
32.25	6.3342
32.26	6.2763
32.27	6.25656
32.28	6.32926
32.29	6.33617
32.3	6.25854
32.31	6.274
32.32	6.29341
32.33	6.24406
32.34	6.25525
32.35	6.31577
32.36	6.28255
32.37	6.29341
32.38	6.32827
32.39	6.28748
32.4	6.33584
32.41	6.3115
32.42	6.28321
32.43	6.27334
32.44	6.30097
32.45	6.2911
32.46	6.26314
32.47	6.29077
32.48	6.30887
32.49	6.33551
32.5	6.29604
32.51	6.28288
32.52	6.2786
32.53	6.25886
32.54	6.249
32.55	6.31314
32.56	6.35262
32.57	6.31248
32.58	6.28419
32.59	6.28748
32.6	6.25261
32.61	6.2911
32.62	6.3161
32.63	6.31742
32.64	6.27301
32.65	6.29077
32.66	6.29637
32.67	6.29012
32.68	6.28781
32.69	6.30426
32.7	6.29341
32.71	6.27334
32.72	6.30887
32.73	6.32433
32.74	6.25788
32.75	6.29867
32.76	6.27104
32.77	6.30919
32.78	6.29571
32.79	6.24209
32.8	6.24538
32.81	6.28222
32.82	6.27926
32.83	6.29867
32.84	6.30196
32.85	6.27169
32.86	6.29077
32.87	6.27893
32.88	6.25919
32.89	6.28584
32.9	6.24538
32.91	6.26347
32.92	6.30294
32.93	6.27827
32.94	6.30689
32.95	6.28321
32.96	6.26084
32.97	6.30492
32.98	6.28255
32.99	6.27893
33	6.32235
33.01	6.27268
33.02	6.32663
33.03	6.29604
33.04	6.31512
33.05	6.31216
33.06	6.30985
33.07	6.30064
33.08	6.31248
33.09	6.29012
33.1	6.3263
33.11	6.27202
33.12	6.27301
33.13	6.31183
33.14	6.31281
33.15	6.2638
33.16	6.33124
33.17	6.27663
33.18	6.28814
33.19	6.33814
33.2	6.28485
33.21	6.21873
33.22	6.27071
33.23	6.28814
33.24	6.32531
33.25	6.26676
33.26	6.2911
33.27	6.34077
33.28	6.3263
33.29	6.29867
33.3	6.29702
33.31	6.30097
33.32	6.23485
33.33	6.23814
33.34	6.26808
33.35	6.27729
33.36	6.27597
33.37	6.28025
33.38	6.31676
33.39	6.28222
33.4	6.26314
33.41	6.27597
33.42	6.29373
33.43	6.30656
33.44	6.27992
33.45	6.28584
33.46	6.249
33.47	6.2888
33.48	6.29867
33.49	6.27827
33.5	6.28617
33.51	6.27301
33.52	6.30887
33.53	6.25755
33.54	6.26939
33.55	6.31742
33.56	6.29012
33.57	6.30623
33.58	6.32433
33.59	6.35821
33.6	6.30952
33.61	6.30031
33.62	6.28189
33.63	6.27005
33.64	6.23682
33.65	6.24472
33.66	6.29966
33.67	6.27136
33.68	6.30426
33.69	6.28189
33.7	6.30755
33.71	6.32038
33.72	6.35788
33.73	6.33255
33.74	6.28255
33.75	6.25886
33.76	6.28255
33.77	6.28781
33.78	6.30985
33.79	6.30558
33.8	6.27136
33.81	6.349
33.82	6.32762
33.83	6.30196
33.84	6.31117
33.85	6.30459
33.86	6.30327
33.87	6.31742
33.88	6.29044
33.89	6.27235
33.9	6.30689
33.91	6.31775
33.92	6.33222
33.93	6.36018
33.94	6.30919
33.95	6.2786
33.96	6.23682
33.97	6.26577
33.98	6.21873
33.99	6.25656
34	6.27663
34.01	6.33156
34.02	6.30919
34.03	6.32795
34.04	6.26347
34.05	6.3013
34.06	6.26051
34.07	6.30525
34.08	6.29604
34.09	6.32663
34.1	6.28683
34.11	6.27893
34.12	6.26972
34.13	6.28617
34.14	6.33913
34.15	6.33025
34.16	6.35031
34.17	6.34966
34.18	6.31643
34.19	6.31281
34.2	6.33222
34.21	6.28222
34.22	6.30985
34.23	6.34505
34.24	6.324
34.25	6.29077
34.26	6.27202
34.27	6.28485
34.28	6.2809
34.29	6.31577
34.3	6.31347
34.31	6.30952
34.32	6.30492
34.33	6.28189
34.34	6.33091
34.35	6.30196
34.36	6.26643
34.37	6.27268
34.38	6.3115
34.39	6.26808
34.4	6.28321
34.41	6.26808
34.42	6.27104
34.43	6.25656
34.44	6.28452
34.45	6.30294
34.46	6.33913
34.47	6.31742
34.48	6.27071
34.49	6.28617
34.5	6.30788
34.51	6.28025
34.52	6.28748
34.53	6.31841
34.54	6.33124
34.55	6.32466
34.56	6.29176
34.57	6.2763
34.58	6.26676
34.59	6.28913
34.6	6.32762
34.61	6.29012
34.62	6.3263
34.63	6.31643
34.64	6.27334
34.65	6.22827
34.66	6.26808
34.67	6.28189
34.68	6.26511
34.69	6.28979
34.7	6.31808
34.71	6.31841
34.72	6.36314
34.73	6.28781
34.74	6.30656
34.75	6.25854
34.76	6.22301
34.77	6.27696
34.78	6.32762
34.79	6.32038
34.8	6.30163
34.81	6.24867
34.82	6.24209
34.83	6.29735
34.84	6.33058
34.85	6.25886
34.86	6.28058
34.87	6.31545
34.88	6.29538
34.89	6.30755
34.9	6.2809
34.91	6.32367
34.92	6.31577
34.93	6.29143
34.94	6.25919
34.95	6.30821
34.96	6.32564
34.97	6.26314
34.98	6.29373
34.99	6.29669
35	6.28189
35.01	6.29966
35.02	6.29538
35.03	6.31018
35.04	6.28913
35.05	6.30525
35.06	6.29998
35.07	6.30327
35.08	6.27959
35.09	6.30196
35.1	6.3411
35.11	6.27498
35.12	6.23189
35.13	6.34406
35.14	6.30689
35.15	6.30985
35.16	6.3342
35.17	6.31545
35.18	6.34275
35.19	6.31183
35.2	6.28123
35.21	6.35459
35.22	6.28123
35.23	6.28321
35.24	6.29472
35.25	6.29735
35.26	6.28551
35.27	6.2536
35.28	6.22959
35.29	6.24834
35.3	6.27169
35.31	6.26117
35.32	6.27893
35.33	6.33091
35.34	6.2638
35.35	6.23946
35.36	6.29637
35.37	6.32466
35.38	6.31906
35.39	6.33387
35.4	6.27235
35.41	6.27202
35.42	6.25229
35.43	6.24669
35.44	6.29538
35.45	6.31084
35.46	6.30788
35.47	6.28255
35.48	6.24604
35.49	6.29472
35.5	6.30591
35.51	6.29012
35.52	6.31709
35.53	6.25623
35.54	6.26051
35.55	6.28946
35.56	6.31216
35.57	6.29406
35.58	6.35262
35.59	6.33025
35.6	6.28025
35.61	6.26775
35.62	6.31413
35.63	6.28518
35.64	6.29176
35.65	6.32137
35.66	6.31183
35.67	6.28255
35.68	6.28683
35.69	6.31051
35.7	6.29998
35.71	6.27564
35.72	6.27696
35.73	6.30262
35.74	6.26511
35.75	6.26577
35.76	6.31841
35.77	6.30854
35.78	6.29702
35.79	6.274
35.8	6.24768
35.81	6.23551
35.82	6.29143
35.83	6.32202
35.84	6.36972
35.85	6.29341
35.86	6.29571
35.87	6.30492
35.88	6.30821
35.89	6.28321
35.9	6.33222
35.91	6.29538
35.92	6.29637
35.93	6.30919
35.94	6.30327
35.95	6.26446
35.96	6.29669
35.97	6.2638
35.98	6.25755
35.99	6.27301
36	6.29669
36.01	6.30229
36.02	6.2263
36.03	6.2536
36.04	6.27334
36.05	6.27696
36.06	6.33584
36.07	6.30985
36.08	6.2684
36.09	6.30426
36.1	6.33518
36.11	6.27334
36.12	6.24505
36.13	6.27136
36.14	6.33387
36.15	6.31183
36.16	6.31939
36.17	6.32235
36.18	6.32301
36.19	6.33354
36.2	6.32729
36.21	6.3161
36.22	6.2888
36.23	6.29867
36.24	6.27926
36.25	6.26972
36.26	6.29867
36.27	6.28156
36.28	6.29044
36.29	6.29735
36.3	6.274
36.31	6.29077
36.32	6.24965
36.33	6.30492
36.34	6.26314
36.35	6.299
36.36	6.29176
36.37	6.30821
36.38	6.30656
36.39	6.32498
36.4	6.27301
36.41	6.29439
36.42	6.31709
36.43	6.27038
36.44	6.26051
36.45	6.31216
36.46	6.31841
36.47	6.24406
36.48	6.26742
36.49	6.30459
36.5	6.23617
36.51	6.27433
36.52	6.30064
36.53	6.31545
36.54	6.30097
36.55	6.31446
36.56	6.33946
36.57	6.28025
36.58	6.26314
36.59	6.23847
36.6	6.26676
36.61	6.29209
36.62	6.31643
36.63	6.31248
36.64	6.30426
36.65	6.30492
36.66	6.32202
36.67	6.29801
36.68	6.29077
36.69	6.32597
36.7	6.30788
36.71	6.3138
36.72	6.274
36.73	6.30426
36.74	6.29439
36.75	6.29933
36.76	6.24143
36.77	6.27465
36.78	6.28584
36.79	6.2388
36.8	6.27465
36.81	6.26413
36.82	6.24669
36.83	6.26775
36.84	6.24834
36.85	6.25919
36.86	6.24307
36.87	6.27531
36.88	6.28452
36.89	6.30755
36.9	6.27071
36.91	6.29341
36.92	6.26479
36.93	6.27071
36.94	6.27104
36.95	6.32466
36.96	6.29702
36.97	6.28058
36.98	6.2809
36.99	6.33551
37	6.27367
37.01	6.19242
37.02	6.23485
37.03	6.29834
37.04	6.31216
37.05	6.28123
37.06	6.26873
37.07	6.20393
37.08	6.27268
37.09	6.29538
37.1	6.26972
37.11	6.27104
37.12	6.25393
37.13	6.2059
37.14	6.24143
37.15	6.27498
37.16	6.27433
37.17	6.28222
37.18	6.23617
37.19	6.24176
37.2	6.24965
37.21	6.23057
37.22	6.21117
37.23	6.28617
37.24	6.30163
37.25	6.23979
37.26	6.25163
37.27	6.32005
37.28	6.2911
37.29	6.27663
37.3	6.29044
37.31	6.26183
37.32	6.27663
37.33	6.31577
37.34	6.2888
37.35	6.27235
37.36	6.28025
37.37	6.26281
37.38	6.2513
37.39	6.23025
37.4	6.24275
37.41	6.23946
37.42	6.28025
37.43	6.30821
37.44	6.31972
37.45	6.30097
37.46	6.23419
37.47	6.29702
37.48	6.34045
37.49	6.30262
37.5	6.32433
37.51	6.23913
37.52	6.27926
37.53	6.27268
37.54	6.26018
37.55	6.2536
37.56	6.30623
37.57	6.32597
37.58	6.25788
37.59	6.26347
37.6	6.28222
37.61	6.27136
37.62	6.2434
37.63	6.28979
37.64	6.249
37.65	6.25031
37.66	6.28419
37.67	6.26051
37.68	6.30294
37.69	6.28847
37.7	6.23321
37.71	6.24932
37.72	6.20557
37.73	6.26281
37.74	6.30656
37.75	6.30262
37.76	6.31314
37.77	6.28584
37.78	6.28058
37.79	6.28222
37.8	6.2888
37.81	6.2388
37.82	6.26314
37.83	6.32005
37.84	6.24702
37.85	6.26117
37.86	6.2786
37.87	6.27334
37.88	6.31577
37.89	6.28979
37.9	6.26808
37.91	6.30591
37.92	6.24801
37.93	6.26117
37.94	6.25294
37.95	6.26117
37.96	6.30294
37.97	6.28058
37.98	6.29012
37.99	6.25755
38	6.30426
38.01	6.26742
38.02	6.23715
38.03	6.25788
38.04	6.23353
38.05	6.27433
38.06	6.24604
38.07	6.2911
38.08	6.29406
38.09	6.32104
38.1	6.30064
38.11	6.29637
38.12	6.32466
38.13	6.26248
38.14	6.28387
38.15	6.26446
38.16	6.24768
38.17	6.29341
38.18	6.27433
38.19	6.24439
38.2	6.29406
38.21	6.28913
38.22	6.25492
38.23	6.23551
38.24	6.22761
38.25	6.26347
38.26	6.28748
38.27	6.31183
38.28	6.30393
38.29	6.28518
38.3	6.25196
38.31	6.25985
38.32	6.2809
38.33	6.29209
38.34	6.26972
38.35	6.25261
38.36	6.32564
38.37	6.30262
38.38	6.26939
38.39	6.24307
38.4	6.25985
38.41	6.32564
38.42	6.29044
38.43	6.27169
38.44	6.30525
38.45	6.28748
38.46	6.27104
38.47	6.31347
38.48	6.31248
38.49	6.32268
38.5	6.27564
38.51	6.28979
38.52	6.27498
38.53	6.29044
38.54	6.26281
38.55	6.23485
38.56	6.25558
38.57	6.29209
38.58	6.27597
38.59	6.27564
38.6	6.27762
38.61	6.26281
38.62	6.25031
38.63	6.24242
38.64	6.27169
38.65	6.27893
38.66	6.28518
38.67	6.2638
38.68	6.24998
38.69	6.2638
38.7	6.26742
38.71	6.26511
38.72	6.20228
38.73	6.25854
38.74	6.28189
38.75	6.23255
38.76	6.21906
38.77	6.20459
38.78	6.26413
38.79	6.27498
38.8	6.24932
38.81	6.21807
38.82	6.29275
38.83	6.28617
38.84	6.2888
38.85	6.27367
38.86	6.28781
38.87	6.26972
38.88	6.26544
38.89	6.26314
38.9	6.2911
38.91	6.30327
38.92	6.30262
38.93	6.29867
38.94	6.274
38.95	6.28321
38.96	6.27597
38.97	6.27367
38.98	6.25558
38.99	6.25031
39	6.25196
39.01	6.24439
39.02	6.24636
39.03	6.25459
39.04	6.30887
39.05	6.31183
39.06	6.28781
39.07	6.27959
39.08	6.25755
39.09	6.29669
39.1	6.28847
39.11	6.26906
39.12	6.25558
39.13	6.31281
39.14	6.28025
39.15	6.26479
39.16	6.29538
39.17	6.28156
39.18	6.26577
39.19	6.26939
39.2	6.26413
39.21	6.27169
39.22	6.29735
39.23	6.24801
39.24	6.28551
39.25	6.27794
39.26	6.26676
39.27	6.24373
39.28	6.29373
39.29	6.3467
39.3	6.27235
39.31	6.27531
39.32	6.25854
39.33	6.26281
39.34	6.32433
39.35	6.30459
39.36	6.27465
39.37	6.26051
39.38	6.29308
39.39	6.26972
39.4	6.24702
39.41	6.2661
39.42	6.23156
39.43	6.23485
39.44	6.24307
39.45	6.28321
39.46	6.2911
39.47	6.31413
39.48	6.26643
39.49	6.29012
39.5	6.28156
39.51	6.22432
39.52	6.26544
39.53	6.24505
39.54	6.20261
39.55	6.25952
39.56	6.30393
39.57	6.25525
39.58	6.26446
39.59	6.28485
39.6	6.30656
39.61	6.24998
39.62	6.27433
39.63	6.2638
39.64	6.25656
39.65	6.2411
39.66	6.30755
39.67	6.29012
39.68	6.24965
39.69	6.23189
39.7	6.21117
39.71	6.28419
39.72	6.25229
39.73	6.27334
39.74	6.24801
39.75	6.27498
39.76	6.26446
39.77	6.28321
39.78	6.28979
39.79	6.29702
39.8	6.26248
39.81	6.30393
39.82	6.3036
39.83	6.3013
39.84	6.2684
39.85	6.2763
39.86	6.23748
39.87	6.23584
39.88	6.26511
39.89	6.24801
39.9	6.29702
39.91	6.25459
39.92	6.27367
39.93	6.29143
39.94	6.25163
39.95	6.27597
39.96	6.29998
39.97	6.27564
39.98	6.29867
39.99	6.3115
40	6.34308
40.01	6.25656
40.02	6.29801
40.03	6.31281
40.04	6.29538
40.05	6.25294
40.06	6.29669
40.07	6.27334
40.08	6.21643
40.09	6.22893
40.1	6.23386
40.11	6.29669
40.12	6.26873
40.13	6.25623
40.14	6.28518
40.15	6.26347
40.16	6.31051
40.17	6.28058
40.18	6.2138
40.19	6.26183
40.2	6.24143
40.21	6.28781
40.22	6.32071
40.23	6.28979
40.24	6.26939
40.25	6.30196
40.26	6.2661
40.27	6.21215
40.28	6.24932
40.29	6.2615
40.3	6.25985
40.31	6.31906
40.32	6.2786
40.33	6.2263
40.34	6.24538
40.35	6.22334
40.36	6.26347
40.37	6.24735
40.38	6.29406
40.39	6.29669
40.4	6.27071
40.41	6.24702
40.42	6.2013
40.43	6.28748
40.44	6.30327
40.45	6.24604
40.46	6.30919
40.47	6.30689
40.48	6.25886
40.49	6.32104
40.5	6.29341
40.51	6.23057
40.52	6.30952
40.53	6.26281
40.54	6.29735
40.55	6.27367
40.56	6.21972
40.57	6.22301
40.58	6.26577
40.59	6.29834
40.6	6.2536
40.61	6.2888
40.62	6.25854
40.63	6.25459
40.64	6.26643
40.65	6.28748
40.66	6.23748
40.67	6.21413
40.68	6.26051
40.69	6.27926
40.7	6.24077
40.71	6.26018
40.72	6.24242
40.73	6.2559
40.74	6.30426
40.75	6.27334
40.76	6.20064
40.77	6.24275
40.78	6.25031
40.79	6.27696
40.8	6.26281
40.81	6.29044
40.82	6.27104
40.83	6.25525
40.84	6.19998
40.85	6.28123
40.86	6.31709
40.87	6.28946
40.88	6.26873
40.89	6.21149
40.9	6.1957
40.91	6.21511
40.92	6.30196
40.93	6.3138
40.94	6.29702
40.95	6.27794
40.96	6.31709
40.97	6.25393
40.98	6.25163
40.99	6.2911
41	6.26117
41.01	6.26183
41.02	6.24702
41.03	6.27893
41.04	6.26183
41.05	6.28715
41.06	6.2434
41.07	6.20919
41.08	6.23386
41.09	6.22827
41.1	6.25558
41.11	6.28814
41.12	6.23847
41.13	6.28222
41.14	6.29867
41.15	6.32795
41.16	6.26281
41.17	6.29933
41.18	6.28189
41.19	6.25558
41.2	6.25656
41.21	6.28748
41.22	6.2615
41.23	6.28452
41.24	6.24834
41.25	6.2911
41.26	6.31775
41.27	6.2513
41.28	6.19735
41.29	6.18781
41.3	6.26709
41.31	6.26183
41.32	6.29012
41.33	6.24604
41.34	6.27498
41.35	6.22564
41.36	6.25327
41.37	6.27136
41.38	6.26446
41.39	6.26248
41.4	6.26281
41.41	6.25525
41.42	6.274
41.43	6.28814
41.44	6.31183
41.45	6.28913
41.46	6.274
41.47	6.25886
41.48	6.22136
41.49	6.26248
41.5	6.29669
41.51	6.2888
41.52	6.28189
41.53	6.28748
41.54	6.2434
41.55	6.28518
41.56	6.26906
41.57	6.27005
41.58	6.31183
41.59	6.25919
41.6	6.25788
41.61	6.29637
41.62	6.27136
41.63	6.27268
41.64	6.29406
41.65	6.29637
41.66	6.25459
41.67	6.27564
41.68	6.2865
41.69	6.2661
41.7	6.23518
41.71	6.29242
41.72	6.25985
41.73	6.22893
41.74	6.28617
41.75	6.26709
41.76	6.27104
41.77	6.27433
41.78	6.28288
41.79	6.28814
41.8	6.25064
41.81	6.32696
41.82	6.28781
41.83	6.25525
41.84	6.22498
41.85	6.25985
41.86	6.26281
41.87	6.2615
41.88	6.28156
41.89	6.25327
41.9	6.23485
41.91	6.25656
41.92	6.24209
41.93	6.25097
41.94	6.22992
41.95	6.26577
41.96	6.28387
41.97	6.26413
41.98	6.27564
41.99	6.28058
42	6.27301
42.01	6.22005
42.02	6.23584
42.03	6.25755
42.04	6.27433
42.05	6.28354
42.06	6.29966
42.07	6.30229
42.08	6.31117
42.09	6.26939
42.1	6.28255
42.11	6.29373
42.12	6.26248
42.13	6.23485
42.14	6.25426
42.15	6.25952
42.16	6.26314
42.17	6.25459
42.18	6.28058
42.19	6.25821
42.2	6.29439
42.21	6.30788
42.22	6.26018
42.23	6.29242
42.24	6.27169
42.25	6.25097
42.26	6.26479
42.27	6.25985
42.28	6.27762
42.29	6.25492
42.3	6.22531
42.31	6.20821
42.32	6.27433
42.33	6.24242
42.34	6.274
42.35	6.28551
42.36	6.30196
42.37	6.26281
42.38	6.26676
42.39	6.22268
42.4	6.23781
42.41	6.24636
42.42	6.26215
42.43	6.26676
42.44	6.27367
42.45	6.25426
42.46	6.22926
42.47	6.21084
42.48	6.2786
42.49	6.26413
42.5	6.29077
42.51	6.30985
42.52	6.30722
42.53	6.2888
42.54	6.2388
42.55	6.21972
42.56	6.24998
42.57	6.25755
42.58	6.26906
42.59	6.24275
42.6	6.20886
42.61	6.29143
42.62	6.28913
42.63	6.26939
42.64	6.25755
42.65	6.22334
42.66	6.26577
42.67	6.25327
42.68	6.24176
42.69	6.24538
42.7	6.23682
42.71	6.28485
42.72	6.22893
42.73	6.25623
42.74	6.26446
42.75	6.26511
42.76	6.22432
42.77	6.28584
42.78	6.26544
42.79	6.27433
42.8	6.30985
42.81	6.26446
42.82	6.21478
42.83	6.2138
42.84	6.30196
42.85	6.28683
42.86	6.27498
42.87	6.29209
42.88	6.26314
42.89	6.24604
42.9	6.22597
42.91	6.27498
42.92	6.31117
42.93	6.3036
42.94	6.26577
42.95	6.23847
42.96	6.24472
42.97	6.2411
42.98	6.25919
42.99	6.26511
43	6.24867
43.01	6.25064
43.02	6.27433
43.03	6.27071
43.04	6.26413
43.05	6.27202
43.06	6.29275
43.07	6.29538
43.08	6.25821
43.09	6.22136
43.1	6.25097
43.11	6.24176
43.12	6.29571
43.13	6.23748
43.14	6.29242
43.15	6.26873
43.16	6.26972
43.17	6.24735
43.18	6.24505
43.19	6.31281
43.2	6.29308
43.21	6.23222
43.22	6.26775
43.23	6.25229
43.24	6.25261
43.25	6.26906
43.26	6.28979
43.27	6.24768
43.28	6.23979
43.29	6.24538
43.3	6.2536
43.31	6.23913
43.32	6.21709
43.33	6.2865
43.34	6.2786
43.35	6.24077
43.36	6.27235
43.37	6.31479
43.38	6.28518
43.39	6.2684
43.4	6.24669
43.41	6.28979
43.42	6.28946
43.43	6.26051
43.44	6.25788
43.45	6.25097
43.46	6.29176
43.47	6.2513
43.48	6.23057
43.49	6.28913
43.5	6.29373
43.51	6.30196
43.52	6.31248
43.53	6.3286
43.54	6.28452
43.55	6.26511
43.56	6.26709
43.57	6.23979
43.58	6.23551
43.59	6.23584
43.6	6.29176
43.61	6.25821
43.62	6.25064
43.63	6.27597
43.64	6.30064
43.65	6.27169
43.66	6.23584
43.67	6.26479
43.68	6.25854
43.69	6.28715
43.7	6.26281
43.71	6.23123
43.72	6.27104
43.73	6.25294
43.74	6.2536
43.75	6.25064
43.76	6.27433
43.77	6.27597
43.78	6.28913
43.79	6.22761
43.8	6.25952
43.81	6.29242
43.82	6.25196
43.83	6.28321
43.84	6.23255
43.85	6.26775
43.86	6.29472
43.87	6.24275
43.88	6.26709
43.89	6.23518
43.9	6.25492
43.91	6.24307
43.92	6.23057
43.93	6.26248
43.94	6.21511
43.95	6.17959
43.96	6.24867
43.97	6.29012
43.98	6.24636
43.99	6.24768
44	6.22696
44.01	6.24143
44.02	6.23057
44.03	6.24143
44.04	6.27268
44.05	6.25097
44.06	6.2559
44.07	6.29275
44.08	6.26051
44.09	6.26248
44.1	6.2888
44.11	6.26117
44.12	6.26215
44.13	6.26939
44.14	6.27235
44.15	6.27071
44.16	6.29867
44.17	6.2809
44.18	6.28485
44.19	6.26775
44.2	6.24307
44.21	6.25985
44.22	6.25821
44.23	6.274
44.24	6.25985
44.25	6.24472
44.26	6.26347
44.27	6.26051
44.28	6.23419
44.29	6.22268
44.3	6.27498
44.31	6.27005
44.32	6.23979
44.33	6.22498
44.34	6.26413
44.35	6.28683
44.36	6.25426
44.37	6.25623
44.38	6.28715
44.39	6.25525
44.4	6.2786
44.41	6.28814
44.42	6.26084
44.43	6.25426
44.44	6.26281
44.45	6.27992
44.46	6.29275
44.47	6.3013
44.48	6.26676
44.49	6.23913
44.5	6.2059
44.51	6.27334
44.52	6.27827
44.53	6.25854
44.54	6.29012
44.55	6.2638
44.56	6.2763
44.57	6.28123
44.58	6.22959
44.59	6.23617
44.6	6.25261
44.61	6.2286
44.62	6.27202
44.63	6.29505
44.64	6.2411
44.65	6.22498
44.66	6.29604
44.67	6.28814
44.68	6.25755
44.69	6.2786
44.7	6.24044
44.71	6.25755
44.72	6.24965
44.73	6.24834
44.74	6.24735
44.75	6.24505
44.76	6.28781
44.77	6.19406
44.78	6.23353
44.79	6.28156
44.8	6.25952
44.81	6.26446
44.82	6.29143
44.83	6.30459
44.84	6.21413
44.85	6.25327
44.86	6.26544
44.87	6.19801
44.88	6.29308
44.89	6.31479
44.9	6.25393
44.91	6.27597
44.92	6.31216
44.93	6.26906
44.94	6.26413
44.95	6.28814
44.96	6.27597
44.97	6.249
44.98	6.27005
44.99	6.21413
45	6.24669
45.01	6.25623
45.02	6.21972
45.03	6.28913
45.04	6.26347
45.05	6.25294
45.06	6.2536
45.07	6.30854
45.08	6.3013
45.09	6.28025
45.1	6.274
45.11	6.23617
45.12	6.28419
45.13	6.28946
45.14	6.26906
45.15	6.27762
45.16	6.28321
45.17	6.25294
45.18	6.26577
45.19	6.22728
45.2	6.24505
45.21	6.25163
45.22	6.22728
45.23	6.24505
45.24	6.25163
45.25	6.28748
45.26	6.29702
45.27	6.29406
45.28	6.26775
45.29	6.22926
45.3	6.26577
45.31	6.29077
45.32	6.30064
45.33	6.26577
45.34	6.24044
45.35	6.26413
45.36	6.21643
45.37	6.25985
45.38	6.24702
45.39	6.24604
45.4	6.24143
45.41	6.23617
45.42	6.1957
45.43	6.29012
45.44	6.25821
45.45	6.25755
45.46	6.2888
45.47	6.31281
45.48	6.2365
45.49	6.21939
45.5	6.28025
45.51	6.28354
45.52	6.26018
45.53	6.22926
45.54	6.2365
45.55	6.19801
45.56	6.24932
45.57	6.31216
45.58	6.29176
45.59	6.27268
45.6	6.23913
45.61	6.23321
45.62	6.27696
45.63	6.23748
45.64	6.27301
45.65	6.24735
45.66	6.30294
45.67	6.24571
45.68	6.30558
45.69	6.30031
45.7	6.24538
45.71	6.28321
45.72	6.28387
45.73	6.274
45.74	6.26215
45.75	6.30426
45.76	6.21807
45.77	6.25031
45.78	6.31643
45.79	6.2865
45.8	6.24669
45.81	6.23222
45.82	6.22432
45.83	6.20228
45.84	6.20623
45.85	6.23748
45.86	6.30196
45.87	6.27465
45.88	6.24801
45.89	6.26873
45.9	6.26544
45.91	6.25689
45.92	6.2365
45.93	6.26051
45.94	6.24011
45.95	6.27136
45.96	6.29439
45.97	6.27071
45.98	6.29439
45.99	6.31841
46	6.26281
46.01	6.27367
46.02	6.28058
46.03	6.2513
46.04	6.24044
46.05	6.27136
46.06	6.22235
46.07	6.24735
46.08	6.29275
46.09	6.28485
46.1	6.24209
46.11	6.24176
46.12	6.23715
46.13	6.2411
46.14	6.22992
46.15	6.27301
46.16	6.24867
46.17	6.28123
46.18	6.25031
46.19	6.20327
46.2	6.24801
46.21	6.29801
46.22	6.24209
46.23	6.22071
46.24	6.23255
46.25	6.23847
46.26	6.23781
46.27	6.2161
46.28	6.21248
46.29	6.26709
46.3	6.25558
46.31	6.27367
46.32	6.27433
46.33	6.274
46.34	6.3217
46.35	6.24998
46.36	6.26709
46.37	6.22728
46.38	6.27992
46.39	6.26446
46.4	6.21248
46.41	6.26906
46.42	6.2536
46.43	6.22564
46.44	6.21742
46.45	6.22367
46.46	6.20722
46.47	6.24077
46.48	6.27729
46.49	6.26709
46.5	6.27893
46.51	6.25821
46.52	6.29735
46.53	6.25656
46.54	6.2536
46.55	6.23551
46.56	6.2309
46.57	6.25755
46.58	6.28222
46.59	6.29143
46.6	6.25393
46.61	6.22827
46.62	6.224
46.63	6.21807
46.64	6.25229
46.65	6.26873
46.66	6.25919
46.67	6.23781
46.68	6.28222
46.69	6.24373
46.7	6.28189
46.71	6.24439
46.72	6.23255
46.73	6.21478
46.74	6.24275
46.75	6.25163
46.76	6.27104
46.77	6.2184
46.78	6.28683
46.79	6.25985
46.8	6.24011
46.81	6.23025
46.82	6.21478
46.83	6.23057
46.84	6.25031
46.85	6.24636
46.86	6.27104
46.87	6.26709
46.88	6.29604
46.89	6.30722
46.9	6.26248
46.91	6.28058
46.92	6.23814
46.93	6.21248
46.94	6.25689
46.95	6.23781
46.96	6.27465
46.97	6.27038
46.98	6.2763
46.99	6.28354
47	6.22926
47.01	6.25952
47.02	6.29044
47.03	6.26248
47.04	6.26051
47.05	6.24998
47.06	6.26347
47.07	6.23748
47.08	6.24275
47.09	6.25393
47.1	6.27729
47.11	6.26544
47.12	6.29801
47.13	6.2615
47.14	6.24932
47.15	6.24965
47.16	6.28419
47.17	6.23617
47.18	6.21314
47.19	6.27498
47.2	6.23057
47.21	6.29242
47.22	6.30163
47.23	6.29801
47.24	6.22827
47.25	6.30097
47.26	6.274
47.27	6.28913
47.28	6.29966
47.29	6.26775
47.3	6.23979
47.31	6.24932
47.32	6.299
47.33	6.30591
47.34	6.27794
47.35	6.29571
47.36	6.27531
47.37	6.22334
47.38	6.26643
47.39	6.2434
47.4	6.2513
47.41	6.2786
47.42	6.21511
47.43	6.20919
47.44	6.24604
47.45	6.23617
47.46	6.25821
47.47	6.26709
47.48	6.25985
47.49	6.3013
47.5	6.29373
47.51	6.27827
47.52	6.27301
47.53	6.22959
47.54	6.21972
47.55	6.24044
47.56	6.29308
47.57	6.24801
47.58	6.28156
47.59	6.28387
47.6	6.25163
47.61	6.26248
47.62	6.20821
47.63	6.23682
47.64	6.27169
47.65	6.27038
47.66	6.29406
47.67	6.22959
47.68	6.27959
47.69	6.27959
47.7	6.30985
47.71	6.26413
47.72	6.24505
47.73	6.26215
47.74	6.23781
47.75	6.25525
47.76	6.26972
47.77	6.22071
47.78	6.27334
47.79	6.30031
47.8	6.27367
47.81	6.27564
47.82	6.26051
47.83	6.2684
47.84	6.20919
47.85	6.25261
47.86	6.24571
47.87	6.25788
47.88	6.27827
47.89	6.26446
47.9	6.22301
47.91	6.24209
47.92	6.19472
47.93	6.25064
47.94	6.29571
47.95	6.29406
47.96	6.2809
47.97	6.23288
47.98	6.25294
47.99	6.25558
48	6.25064
48.01	6.27498
48.02	6.27498
48.03	6.24077
48.04	6.24242
48.05	6.28156
48.06	6.23419
48.07	6.25064
48.08	6.22696
48.09	6.22367
48.1	6.23057
48.11	6.21149
48.12	6.26544
48.13	6.22038
48.14	6.25854
48.15	6.26281
48.16	6.23485
48.17	6.21215
48.18	6.24965
48.19	6.24965
48.2	6.29472
48.21	6.31051
48.22	6.24867
48.23	6.25261
48.24	6.24768
48.25	6.3013
48.26	6.30558
48.27	6.26511
48.28	6.21182
48.29	6.24307
48.3	6.23321
48.31	6.23814
48.32	6.23584
48.33	6.22071
48.34	6.27038
48.35	6.24965
48.36	6.27301
48.37	6.27926
48.38	6.25229
48.39	6.2434
48.4	6.2036
48.41	6.29768
48.42	6.29933
48.43	6.25459
48.44	6.26215
48.45	6.28387
48.46	6.24505
48.47	6.24669
48.48	6.3013
48.49	6.2161
48.5	6.24834
48.51	6.21281
48.52	6.22202
48.53	6.27235
48.54	6.24834
48.55	6.28387
48.56	6.2786
48.57	6.22301
48.58	6.25163
48.59	6.2513
48.6	6.24998
48.61	6.2865
48.62	6.32334
48.63	6.26314
48.64	6.25656
48.65	6.23123
48.66	6.24538
48.67	6.18452
48.68	6.28321
48.69	6.26544
48.7	6.27334
48.71	6.23025
48.72	6.22038
48.73	6.22893
48.74	6.26084
48.75	6.25886
48.76	6.23946
48.77	6.23748
48.78	6.2536
48.79	6.22959
48.8	6.25525
48.81	6.24604
48.82	6.274
48.83	6.27104
48.84	6.31051
48.85	6.26544
48.86	6.23946
48.87	6.20755
48.88	6.25919
48.89	6.23913
48.9	6.25064
48.91	6.22071
48.92	6.23386
48.93	6.26314
48.94	6.23419
48.95	6.27959
48.96	6.25952
48.97	6.26511
48.98	6.2809
48.99	6.24669
49	6.2865
49.01	6.23189
49.02	6.26084
49.03	6.27038
49.04	6.24373
49.05	6.26709
49.06	6.21676
49.07	6.25656
49.08	6.27926
49.09	6.27038
49.1	6.25097
49.11	6.30821
49.12	6.26117
49.13	6.24011
49.14	6.26972
49.15	6.25886
49.16	6.25426
49.17	6.24932
49.18	6.26117
49.19	6.24275
49.2	6.25755
49.21	6.27071
49.22	6.28485
49.23	6.25426
49.24	6.26972
49.25	6.22432
49.26	6.27597
49.27	6.25722
49.28	6.21906
49.29	6.25558
49.3	6.2684
49.31	6.26347
49.32	6.27564
49.33	6.2661
49.34	6.2865
49.35	6.21248
49.36	6.23814
49.37	6.26051
49.38	6.30163
49.39	6.25459
49.4	6.27038
49.41	6.22893
49.42	6.30097
49.43	6.24604
49.44	6.27959
49.45	6.26413
49.46	6.20689
49.47	6.20788
49.48	6.25722
49.49	6.224
49.5	6.23979
49.51	6.25064
49.52	6.24209
49.53	6.2615
49.54	6.25097
49.55	6.24867
49.56	6.26775
49.57	6.28452
49.58	6.27827
49.59	6.24801
49.6	6.24669
49.61	6.25886
49.62	6.249
49.63	6.249
49.64	6.24077
49.65	6.2411
49.66	6.22893
49.67	6.26577
49.68	6.25689
49.69	6.31347
49.7	6.24209
49.71	6.24472
49.72	6.23255
49.73	6.21413
49.74	6.24472
49.75	6.24044
49.76	6.2411
49.77	6.28847
49.78	6.31545
49.79	6.29077
49.8	6.28387
49.81	6.25689
49.82	6.25985
49.83	6.24932
49.84	6.25689
49.85	6.27169
49.86	6.30952
49.87	6.28551
49.88	6.2763
49.89	6.25788
49.9	6.25261
49.91	6.20459
49.92	6.27334
49.93	6.24242
49.94	6.1763
49.95	6.21084
49.96	6.23781
49.97	6.32762
49.98	6.27433
49.99	6.20097
50	6.274
