"BIO-KINE ASCII FILE"
"_COMMENT"	"MOS-500 Spectrometer"
"_COMMENT"	"Kinetics measurement"
"_COMMENT"	"Y Unit : Volt,  X Unit : s"
"_COMMENT"	"Excitation wavelength : 380 nm"
"_COMMENT"	"Fentes bandwidth =  1 nm"
"_COMMENT"	"HV= 700V"
"_COMMENT"	"Timebase  1 =  .01 s   3001 pts"
"_SFM"	"SFM-400 /S  Advanced mode"
"_SFM"	"Ratio : S1: 2.5, S2: 0, S3: 0, S4: 1"
"_SFM"	"Content : S1: , S2: , S3: , S4:"
"_SFM"	"Concentration : S1: , S2: , S3: , S4:"
"_SFM"	"Total volume : 209 µl  Flow : 3.5 mL/s"
"_SFM"	"Acquisition start :  10 ms before stop"
"_SFM"	"cuve=FC-15, s1=10 ml , s2=10 ml , s3=10 ml , s4=1.9 ml"
"_UNITX"	"s"
"_UNITY"	"Volt"
"_DELTAX"	0
"_DATA"
1e-300	7.95792
0.01	8.54247
0.02	8.69544
0.03	8.73097
0.04	8.74215
0.05	8.75202
0.06	8.7382
0.07	8.72833
0.08	8.73557
0.09	8.74741
0.1	8.75333
0.11	8.75761
0.12	8.75333
0.13	8.74379
0.14	8.75794
0.15	8.74314
0.16	8.75531
0.17	8.74248
0.18	8.73787
0.19	8.74643
0.2	8.74149
0.21	8.74544
0.22	8.72439
0.23	8.73393
0.24	8.72768
0.25	8.73491
0.26	8.71847
0.27	8.72274
0.28	8.71287
0.29	8.71287
0.3	8.70728
0.31	8.70366
0.32	8.7086
0.33	8.6961
0.34	8.69018
0.35	8.67241
0.36	8.67011
0.37	8.66781
0.38	8.68096
0.39	8.66353
0.4	8.64511
0.41	8.66156
0.42	8.64281
0.43	8.63294
0.44	8.64807
0.45	8.62998
0.46	8.61781
0.47	8.61846
0.48	8.62109
0.49	8.60695
0.5	8.61682
0.51	8.59215
0.52	8.57833
0.53	8.5734
0.54	8.59642
0.55	8.58195
0.56	8.57504
0.57	8.54675
0.58	8.53359
0.59	8.5507
0.6	8.53425
0.61	8.5382
0.62	8.52208
0.63	8.52307
0.64	8.52701
0.65	8.51451
0.66	8.50728
0.67	8.51418
0.68	8.50465
0.69	8.47932
0.7	8.46813
0.71	8.46517
0.72	8.47405
0.73	8.47043
0.74	8.45431
0.75	8.44543
0.76	8.43655
0.77	8.42635
0.78	8.42043
0.79	8.43458
0.8	8.42109
0.81	8.41056
0.82	8.38688
0.83	8.38754
0.84	8.40037
0.85	8.40004
0.86	8.38326
0.87	8.3678
0.88	8.35629
0.89	8.37208
0.9	8.35727
0.91	8.3474
0.92	8.34773
0.93	8.32602
0.94	8.32273
0.95	8.32833
0.96	8.32931
0.97	8.31879
0.98	8.31484
0.99	8.29675
1	8.2826
1.01	8.28161
1.02	8.26977
1.03	8.27438
1.04	8.2928
1.05	8.27306
1.06	8.26319
1.07	8.26253
1.08	8.23753
1.09	8.23753
1.1	8.22931
1.11	8.22701
1.12	8.23326
1.13	8.20628
1.14	8.18885
1.15	8.20201
1.16	8.18556
1.17	8.15694
1.18	8.1724
1.19	8.16582
1.2	8.16911
1.21	8.14872
1.22	8.15233
1.23	8.14082
1.24	8.12339
1.25	8.11648
1.26	8.10891
1.27	8.10858
1.28	8.10365
1.29	8.102
1.3	8.09312
1.31	8.09378
1.32	8.0849
1.33	8.06878
1.34	8.06023
1.35	8.05924
1.36	8.06121
1.37	8.04246
1.38	8.03095
1.39	8.03457
1.4	8.02602
1.41	8.02766
1.42	8.01779
1.43	8.00562
1.44	7.99509
1.45	7.99279
1.46	7.97569
1.47	7.99509
1.48	7.97009
1.49	7.95825
1.5	7.95134
1.51	7.96088
1.52	7.95365
1.53	7.94838
1.54	7.9395
1.55	7.93654
1.56	7.93358
1.57	7.93095
1.58	7.91845
1.59	7.9168
1.6	7.89674
1.61	7.89509
1.62	7.8816
1.63	7.87371
1.64	7.86713
1.65	7.85858
1.66	7.87042
1.67	7.86055
1.68	7.84772
1.69	7.84937
1.7	7.84312
1.71	7.82009
1.72	7.81746
1.73	7.81384
1.74	7.82173
1.75	7.802
1.76	7.79805
1.77	7.79377
1.78	7.78719
1.79	7.77667
1.8	7.77436
1.81	7.76515
1.82	7.75956
1.83	7.75134
1.84	7.73785
1.85	7.7418
1.86	7.73686
1.87	7.73127
1.88	7.71713
1.89	7.70594
1.9	7.70002
1.91	7.7089
1.92	7.69542
1.93	7.6964
1.94	7.67502
1.95	7.66844
1.96	7.67042
1.97	7.6589
1.98	7.64607
1.99	7.65561
2	7.62633
2.01	7.63226
2.02	7.62305
2.03	7.61581
2.04	7.6112
2.05	7.60528
2.06	7.61482
2.07	7.59278
2.08	7.59541
2.09	7.58456
2.1	7.58225
2.11	7.56087
2.12	7.56285
2.13	7.55725
2.14	7.55068
2.15	7.5316
2.16	7.52469
2.17	7.52798
2.18	7.52173
2.19	7.51745
2.2	7.50495
2.21	7.49475
2.22	7.50363
2.23	7.48423
2.24	7.48258
2.25	7.47074
2.26	7.476
2.27	7.45857
2.28	7.46449
2.29	7.46284
2.3	7.4464
2.31	7.42666
2.32	7.41975
2.33	7.42896
2.34	7.43357
2.35	7.41186
2.36	7.38718
2.37	7.3964
2.38	7.39278
2.39	7.39442
2.4	7.36218
2.41	7.36547
2.42	7.3612
2.43	7.35264
2.44	7.34541
2.45	7.33883
2.46	7.3431
2.47	7.32337
2.48	7.326
2.49	7.32271
2.5	7.32139
2.51	7.32139
2.52	7.30692
2.53	7.29804
2.54	7.29541
2.55	7.29475
2.56	7.28126
2.57	7.29014
2.58	7.28356
2.59	7.26712
2.6	7.25165
2.61	7.24409
2.62	7.24902
2.63	7.24179
2.64	7.2329
2.65	7.22534
2.66	7.21679
2.67	7.22435
2.68	7.22501
2.69	7.21054
2.7	7.19113
2.71	7.19442
2.72	7.18422
2.73	7.17961
2.74	7.16613
2.75	7.17764
2.76	7.16251
2.77	7.15067
2.78	7.14803
2.79	7.1431
2.8	7.13488
2.81	7.1158
2.82	7.12007
2.83	7.1204
2.84	7.11448
2.85	7.11876
2.86	7.11152
2.87	7.08454
2.88	7.09112
2.89	7.07829
2.9	7.06908
2.91	7.06777
2.92	7.05165
2.93	7.05461
2.94	7.05461
2.95	7.04145
2.96	7.03816
2.97	7.02895
2.98	7.02961
2.99	7.03158
3	7.0125
3.01	7.0181
3.02	7.00823
3.03	6.98915
3.04	6.99277
3.05	6.97402
3.06	6.97698
3.07	6.97237
3.08	6.9704
3.09	6.96217
3.1	6.94638
3.11	6.94178
3.12	6.95
3.13	6.93882
3.14	6.92237
3.15	6.91645
3.16	6.9125
3.17	6.91316
3.18	6.91151
3.19	6.90395
3.2	6.89671
3.21	6.88717
3.22	6.87138
3.23	6.87336
3.24	6.87401
3.25	6.85987
3.26	6.85493
3.27	6.86809
3.28	6.84868
3.29	6.83618
3.3	6.8227
3.31	6.82763
3.32	6.82302
3.33	6.82401
3.34	6.81974
3.35	6.80033
3.36	6.81283
3.37	6.79868
3.38	6.77862
3.39	6.78881
3.4	6.78191
3.41	6.78454
3.42	6.7694
3.43	6.75723
3.44	6.75164
3.45	6.75427
3.46	6.74013
3.47	6.73881
3.48	6.73289
3.49	6.72204
3.5	6.72401
3.51	6.72236
3.52	6.70625
3.53	6.71447
3.54	6.71052
3.55	6.70296
3.56	6.6819
3.57	6.67467
3.58	6.68388
3.59	6.6773
3.6	6.67039
3.61	6.64802
3.62	6.64243
3.63	6.65263
3.64	6.64341
3.65	6.63124
3.66	6.62762
3.67	6.63355
3.68	6.62302
3.69	6.62499
3.7	6.62203
3.71	6.61447
3.72	6.59703
3.73	6.5921
3.74	6.58815
3.75	6.5967
3.76	6.57368
3.77	6.57466
3.78	6.56874
3.79	6.55493
3.8	6.55986
3.81	6.56249
3.82	6.55032
3.83	6.53716
3.84	6.53486
3.85	6.53453
3.86	6.52335
3.87	6.52499
3.88	6.51841
3.89	6.51315
3.9	6.50591
3.91	6.51775
3.92	6.50427
3.93	6.49802
3.94	6.48453
3.95	6.48782
3.96	6.47828
3.97	6.48617
3.98	6.4763
3.99	6.46611
4	6.46907
4.01	6.45163
4.02	6.43782
4.03	6.44374
4.04	6.42894
4.05	6.42565
4.06	6.41972
4.07	6.42301
4.08	6.39768
4.09	6.39439
4.1	6.39538
4.11	6.40229
4.12	6.39341
4.13	6.38288
4.14	6.38716
4.15	6.37959
4.16	6.36808
4.17	6.37203
4.18	6.35689
4.19	6.3592
4.2	6.35755
4.21	6.33814
4.22	6.33979
4.23	6.34275
4.24	6.31775
4.25	6.32893
4.26	6.32038
4.27	6.31545
4.28	6.30821
4.29	6.31742
4.3	6.32071
4.31	6.31248
4.32	6.29538
4.33	6.30064
4.34	6.28058
4.35	6.28025
4.36	6.27663
4.37	6.27762
4.38	6.2661
4.39	6.25985
4.4	6.25689
4.41	6.26413
4.42	6.24834
4.43	6.24242
4.44	6.23715
4.45	6.24702
4.46	6.2263
4.47	6.22827
4.48	6.22071
4.49	6.20557
4.5	6.20656
4.51	6.21215
4.52	6.20196
4.53	6.19373
4.54	6.17794
4.55	6.18255
4.56	6.17992
4.57	6.17366
4.58	6.1684
4.59	6.18189
4.6	6.1638
4.61	6.15985
4.62	6.16577
4.63	6.16478
4.64	6.15064
4.65	6.12893
4.66	6.13419
4.67	6.12893
4.68	6.12761
4.69	6.1184
4.7	6.10886
4.71	6.10919
4.72	6.11379
4.73	6.11051
4.74	6.09636
4.75	6.09965
4.76	6.09439
4.77	6.08847
4.78	6.09241
4.79	6.0855
4.8	6.07399
4.81	6.06642
4.82	6.06182
4.83	6.06412
4.84	6.06116
4.85	6.05721
4.86	6.0536
4.87	6.05064
4.88	6.04702
4.89	6.04932
4.9	6.03649
4.91	6.04373
4.92	6.03649
4.93	6.03386
4.94	6.02004
4.95	6.01774
4.96	6.02103
4.97	6.01971
4.98	6.00063
4.99	5.99932
5	5.99932
5.01	5.9934
5.02	6.00491
5.03	5.98155
5.04	5.98846
5.05	5.98846
5.06	5.97432
5.07	5.95655
5.08	5.96807
5.09	5.9628
5.1	5.96083
5.11	5.95359
5.12	5.94537
5.13	5.93714
5.14	5.93846
5.15	5.93188
5.16	5.92958
5.17	5.92136
5.18	5.92464
5.19	5.91642
5.2	5.91083
5.21	5.9128
5.22	5.90359
5.23	5.89306
5.24	5.90359
5.25	5.90096
5.26	5.89405
5.27	5.89372
5.28	5.88385
5.29	5.87135
5.3	5.87399
5.31	5.85852
5.32	5.85787
5.33	5.85326
5.34	5.8628
5.35	5.84898
5.36	5.84668
5.37	5.84997
5.38	5.83352
5.39	5.83517
5.4	5.82826
5.41	5.83846
5.42	5.83813
5.43	5.83089
5.44	5.82497
5.45	5.82201
5.46	5.81477
5.47	5.80688
5.48	5.80754
5.49	5.80984
5.5	5.79207
5.51	5.7901
5.52	5.78254
5.53	5.78681
5.54	5.78517
5.55	5.78385
5.56	5.77694
5.57	5.78254
5.58	5.76773
5.59	5.77497
5.6	5.77398
5.61	5.75753
5.62	5.76148
5.63	5.74898
5.64	5.74569
5.65	5.73253
5.66	5.73517
5.67	5.73747
5.68	5.7276
5.69	5.73944
5.7	5.71872
5.71	5.71707
5.72	5.7151
5.73	5.71115
5.74	5.71477
5.75	5.70753
5.76	5.69569
5.77	5.70194
5.78	5.70589
5.79	5.70688
5.8	5.68451
5.81	5.67727
5.82	5.68253
5.83	5.6878
5.84	5.67365
5.85	5.67135
5.86	5.67365
5.87	5.66576
5.88	5.66214
5.89	5.66773
5.9	5.65556
5.91	5.64898
5.92	5.64997
5.93	5.65358
5.94	5.65062
5.95	5.63648
5.96	5.64108
5.97	5.63418
5.98	5.63582
5.99	5.62496
6	5.62562
6.01	5.62365
6.02	5.62365
6.03	5.61378
6.04	5.61181
6.05	5.60391
6.06	5.60358
6.07	5.61148
6.08	5.60194
6.09	5.59832
6.1	5.59931
6.11	5.59536
6.12	5.59799
6.13	5.58845
6.14	5.58385
6.15	5.58615
6.16	5.57431
6.17	5.56542
6.18	5.55884
6.19	5.55819
6.2	5.56279
6.21	5.55259
6.22	5.56115
6.23	5.55621
6.24	5.55161
6.25	5.54503
6.26	5.54009
6.27	5.54963
6.28	5.53417
6.29	5.53154
6.3	5.5368
6.31	5.547
6.32	5.53351
6.33	5.53779
6.34	5.53384
6.35	5.52069
6.36	5.51838
6.37	5.52858
6.38	5.522
6.39	5.51805
6.4	5.51378
6.41	5.50161
6.42	5.50522
6.43	5.50292
6.44	5.50161
6.45	5.50161
6.46	5.50128
6.47	5.50128
6.48	5.4743
6.49	5.47397
6.5	5.47726
6.51	5.47134
6.52	5.46279
6.53	5.4641
6.54	5.47035
6.55	5.46937
6.56	5.45588
6.57	5.46049
6.58	5.45555
6.59	5.44404
6.6	5.44141
6.61	5.45029
6.62	5.43845
6.63	5.4447
6.64	5.43845
6.65	5.43614
6.66	5.43713
6.67	5.43154
6.68	5.43154
6.69	5.4368
6.7	5.43483
6.71	5.41772
6.72	5.40818
6.73	5.41476
6.74	5.41838
6.75	5.42068
6.76	5.40095
6.77	5.41575
6.78	5.41509
6.79	5.40621
6.8	5.40785
6.81	5.39831
6.82	5.40851
6.83	5.40423
6.84	5.39502
6.85	5.38746
6.86	5.38055
6.87	5.3891
6.88	5.38055
6.89	5.37397
6.9	5.37594
6.91	5.37134
6.92	5.37693
6.93	5.36739
6.94	5.37035
6.95	5.36969
6.96	5.35752
6.97	5.35522
6.98	5.35094
6.99	5.35292
7	5.34404
7.01	5.36739
7.02	5.34535
7.03	5.33811
7.04	5.34634
7.05	5.33219
7.06	5.33779
7.07	5.33285
7.08	5.33186
7.09	5.33285
7.1	5.3266
7.11	5.32496
7.12	5.32002
7.13	5.31706
7.14	5.32002
7.15	5.3141
7.16	5.31575
7.17	5.31739
7.18	5.31443
7.19	5.29667
7.2	5.30193
7.21	5.29732
7.22	5.3039
7.23	5.30489
7.24	5.30555
7.25	5.28976
7.26	5.2937
7.27	5.28351
7.28	5.2868
7.29	5.28548
7.3	5.28153
7.31	5.28318
7.32	5.27923
7.33	5.27101
7.34	5.26607
7.35	5.26838
7.36	5.26805
7.37	5.26213
7.38	5.26607
7.39	5.26838
7.4	5.26311
7.41	5.24568
7.42	5.26015
7.43	5.2414
7.44	5.24666
7.45	5.2437
7.46	5.2414
7.47	5.24272
7.48	5.24173
7.49	5.23449
7.5	5.23482
7.51	5.24041
7.52	5.2437
7.53	5.2266
7.54	5.22133
7.55	5.21607
7.56	5.22495
7.57	5.21936
7.58	5.21739
7.59	5.21508
7.6	5.21114
7.61	5.20818
7.62	5.22133
7.63	5.20785
7.64	5.20489
7.65	5.21607
7.66	5.20225
7.67	5.20324
7.68	5.19633
7.69	5.20653
7.7	5.2016
7.71	5.19798
7.72	5.19798
7.73	5.19272
7.74	5.18943
7.75	5.19008
7.76	5.18877
7.77	5.18614
7.78	5.18482
7.79	5.19008
7.8	5.18679
7.81	5.17166
7.82	5.17758
7.83	5.17693
7.84	5.17331
7.85	5.16344
7.86	5.16377
7.87	5.15982
7.88	5.16969
7.89	5.16508
7.9	5.1539
7.91	5.15587
7.92	5.16114
7.93	5.15357
7.94	5.15817
7.95	5.16114
7.96	5.1687
7.97	5.16442
7.98	5.15916
7.99	5.16475
8	5.14732
8.01	5.15061
8.02	5.13975
8.03	5.14173
8.04	5.13416
8.05	5.14403
8.06	5.14929
8.07	5.12495
8.08	5.10686
8.09	5.12791
8.1	5.13186
8.11	5.12659
8.12	5.12824
8.13	5.12659
8.14	5.11804
8.15	5.12133
8.16	5.11146
8.17	5.11344
8.18	5.12166
8.19	5.12396
8.2	5.11442
8.21	5.10291
8.22	5.11344
8.23	5.12067
8.24	5.11475
8.25	5.11344
8.26	5.10455
8.27	5.10982
8.28	5.10488
8.29	5.09469
8.3	5.10192
8.31	5.0983
8.32	5.09666
8.33	5.09666
8.34	5.08909
8.35	5.08876
8.36	5.08547
8.37	5.08251
8.38	5.07725
8.39	5.07495
8.4	5.07955
8.41	5.08219
8.42	5.07495
8.43	5.06015
8.44	5.06705
8.45	5.07199
8.46	5.07594
8.47	5.06475
8.48	5.07429
8.49	5.06969
8.5	5.06508
8.51	5.05784
8.52	5.04436
8.53	5.05751
8.54	5.07232
8.55	5.05126
8.56	5.04436
8.57	5.04666
8.58	5.04764
8.59	5.05488
8.6	5.0437
8.61	5.04468
8.62	5.04863
8.63	5.04699
8.64	5.04863
8.65	5.04008
8.66	5.02988
8.67	5.04238
8.68	5.03843
8.69	5.03482
8.7	5.03909
8.71	5.03745
8.72	5.03449
8.73	5.03778
8.74	5.03547
8.75	5.02955
8.76	5.0233
8.77	5.03843
8.78	5.02692
8.79	5.02692
8.8	5.01179
8.81	5.02067
8.82	5.01837
8.83	5.01376
8.84	5.01212
8.85	5.01705
8.86	5.00883
8.87	5.00291
8.88	5.01606
8.89	5.0108
8.9	4.99337
8.91	4.99106
8.92	4.99435
8.93	5.01212
8.94	5.0108
8.95	4.99995
8.96	4.99896
8.97	4.99106
8.98	4.99337
8.99	4.99995
9	4.99929
9.01	4.98712
9.02	4.99534
9.03	4.99764
9.04	4.98514
9.05	4.9983
9.06	4.98646
9.07	4.99238
9.08	4.98679
9.09	4.97297
9.1	4.98975
9.11	4.99041
9.12	4.98284
9.13	4.97922
9.14	4.98416
9.15	4.97922
9.16	4.97264
9.17	4.97034
9.18	4.97067
9.19	4.98514
9.2	4.97231
9.21	4.9687
9.22	4.96442
9.23	4.96244
9.24	4.97363
9.25	4.95685
9.26	4.96047
9.27	4.96573
9.28	4.96047
9.29	4.9483
9.3	4.95126
9.31	4.96343
9.32	4.95356
9.33	4.95587
9.34	4.96639
9.35	4.95258
9.36	4.94764
9.37	4.95554
9.38	4.95422
9.39	4.93448
9.4	4.95323
9.41	4.95587
9.42	4.9585
9.43	4.94633
9.44	4.94994
9.45	4.94501
9.46	4.94139
9.47	4.94797
9.48	4.94337
9.49	4.94008
9.5	4.93613
9.51	4.9381
9.52	4.93646
9.53	4.94994
9.54	4.94534
9.55	4.9335
9.56	4.93021
9.57	4.93613
9.58	4.93152
9.59	4.92527
9.6	4.92297
9.61	4.92461
9.62	4.92461
9.63	4.92264
9.64	4.92856
9.65	4.92297
9.66	4.921
9.67	4.92001
9.68	4.90652
9.69	4.91935
9.7	4.92626
9.71	4.92922
9.72	4.91869
9.73	4.91343
9.74	4.91047
9.75	4.90981
9.76	4.90915
9.77	4.90159
9.78	4.90093
9.79	4.90882
9.8	4.90981
9.81	4.90521
9.82	4.90521
9.83	4.89336
9.84	4.90784
9.85	4.89567
9.86	4.90356
9.87	4.89764
9.88	4.89402
9.89	4.89172
9.9	4.89534
9.91	4.89501
9.92	4.89369
9.93	4.89172
9.94	4.88053
9.95	4.89007
9.96	4.8756
9.97	4.88448
9.98	4.88218
9.99	4.89073
10	4.89073
10.01	4.88843
10.02	4.88119
10.03	4.87955
10.04	4.8835
10.05	4.88251
10.06	4.88678
10.07	4.87856
10.08	4.87823
10.09	4.87494
10.1	4.8756
10.11	4.88711
10.12	4.89336
10.13	4.88317
10.14	4.87494
10.15	4.88284
10.16	4.87626
10.17	4.87428
10.18	4.86738
10.19	4.87856
10.2	4.87527
10.21	4.8631
10.22	4.85553
10.23	4.87297
10.24	4.87823
10.25	4.88119
10.26	4.87626
10.27	4.87757
10.28	4.86277
10.29	4.86507
10.3	4.87264
10.31	4.86968
10.32	4.85948
10.33	4.85093
10.34	4.86639
10.35	4.85948
10.36	4.84895
10.37	4.85159
10.38	4.85652
10.39	4.83974
10.4	4.85718
10.41	4.86047
10.42	4.85159
10.43	4.85126
10.44	4.8552
10.45	4.85257
10.46	4.85093
10.47	4.85224
10.48	4.85488
10.49	4.84961
10.5	4.83744
10.51	4.83909
10.52	4.83941
10.53	4.84336
10.54	4.8483
10.55	4.83974
10.56	4.83777
10.57	4.84731
10.58	4.84599
10.59	4.84073
10.6	4.8302
10.61	4.84205
10.62	4.8427
10.63	4.82461
10.64	4.82889
10.65	4.83777
10.66	4.83547
10.67	4.83349
10.68	4.82362
10.69	4.83053
10.7	4.83119
10.71	4.83349
10.72	4.82823
10.73	4.82362
10.74	4.8154
10.75	4.83843
10.76	4.82198
10.77	4.82593
10.78	4.82724
10.79	4.83053
10.8	4.81343
10.81	4.82099
10.82	4.82691
10.83	4.8279
10.84	4.82231
10.85	4.82955
10.86	4.82264
10.87	4.83481
10.88	4.83678
10.89	4.82264
10.9	4.82198
10.91	4.82395
10.92	4.80948
10.93	4.82001
10.94	4.82395
10.95	4.8233
10.96	4.81705
10.97	4.80882
10.98	4.80356
10.99	4.80619
11	4.81112
11.01	4.82198
11.02	4.81211
11.03	4.81014
11.04	4.80389
11.05	4.81409
11.06	4.80751
11.07	4.80685
11.08	4.81869
11.09	4.80323
11.1	4.79797
11.11	4.80422
11.12	4.80553
11.13	4.80652
11.14	4.79402
11.15	4.79994
11.16	4.80093
11.17	4.79665
11.18	4.79961
11.19	4.80981
11.2	4.79698
11.21	4.79731
11.22	4.79303
11.23	4.78876
11.24	4.79402
11.25	4.79172
11.26	4.79994
11.27	4.78908
11.28	4.79566
11.29	4.79632
11.3	4.79303
11.31	4.79468
11.32	4.7983
11.33	4.78448
11.34	4.79237
11.35	4.78415
11.36	4.77823
11.37	4.78382
11.38	4.77593
11.39	4.78514
11.4	4.7779
11.41	4.78415
11.42	4.79599
11.43	4.78744
11.44	4.79073
11.45	4.78382
11.46	4.79139
11.47	4.78777
11.48	4.78514
11.49	4.79237
11.5	4.78547
11.51	4.78843
11.52	4.77066
11.53	4.78382
11.54	4.78119
11.55	4.78316
11.56	4.78678
11.57	4.77198
11.58	4.76902
11.59	4.78086
11.6	4.7802
11.61	4.77099
11.62	4.77395
11.63	4.77691
11.64	4.77954
11.65	4.77757
11.66	4.77066
11.67	4.76737
11.68	4.76573
11.69	4.77132
11.7	4.77658
11.71	4.77329
11.72	4.7654
11.73	4.78119
11.74	4.77856
11.75	4.75915
11.76	4.76441
11.77	4.7677
11.78	4.76343
11.79	4.76047
11.8	4.75981
11.81	4.77823
11.82	4.77461
11.83	4.76408
11.84	4.75783
11.85	4.76474
11.86	4.7631
11.87	4.76836
11.88	4.76014
11.89	4.76474
11.9	4.75915
11.91	4.7506
11.92	4.75783
11.93	4.76441
11.94	4.76244
11.95	4.75685
11.96	4.75093
11.97	4.75849
11.98	4.76573
11.99	4.76573
12	4.75553
12.01	4.7529
12.02	4.7506
12.03	4.74961
12.04	4.75718
12.05	4.74106
12.06	4.75093
12.07	4.75718
12.08	4.7529
12.09	4.75816
12.1	4.74665
12.11	4.7575
12.12	4.75224
12.13	4.74928
12.14	4.74632
12.15	4.74862
12.16	4.75093
12.17	4.7529
12.18	4.7427
12.19	4.75454
12.2	4.75224
12.21	4.75882
12.22	4.74961
12.23	4.73546
12.24	4.73119
12.25	4.74599
12.26	4.74665
12.27	4.7506
12.28	4.74468
12.29	4.75125
12.3	4.73875
12.31	4.74961
12.32	4.73842
12.33	4.73481
12.34	4.73349
12.35	4.73053
12.36	4.73316
12.37	4.74961
12.38	4.7404
12.39	4.7404
12.4	4.73612
12.41	4.73645
12.42	4.73711
12.43	4.72987
12.44	4.73448
12.45	4.7325
12.46	4.72625
12.47	4.73645
12.48	4.73349
12.49	4.7302
12.5	4.73645
12.51	4.7325
12.52	4.72921
12.53	4.73744
12.54	4.72625
12.55	4.72823
12.56	4.72889
12.57	4.73875
12.58	4.72757
12.59	4.72296
12.6	4.73579
12.61	4.73152
12.62	4.7256
12.63	4.7381
12.64	4.7256
12.65	4.73514
12.66	4.72691
12.67	4.73415
12.68	4.73546
12.69	4.72592
12.7	4.72362
12.71	4.72691
12.72	4.72625
12.73	4.72296
12.74	4.72658
12.75	4.73612
12.76	4.72231
12.77	4.72921
12.78	4.73053
12.79	4.7381
12.8	4.72691
12.81	4.73349
12.82	4.73974
12.83	4.73119
12.84	4.73283
12.85	4.72889
12.86	4.72658
12.87	4.71178
12.88	4.7279
12.89	4.72691
12.9	4.72461
12.91	4.73185
12.92	4.73152
12.93	4.7302
12.94	4.72823
12.95	4.72329
12.96	4.72921
12.97	4.72856
12.98	4.72494
12.99	4.71474
13	4.72165
13.01	4.71935
13.02	4.71408
13.03	4.71013
13.04	4.71869
13.05	4.71145
13.06	4.71573
13.07	4.72033
13.08	4.7154
13.09	4.71737
13.1	4.72625
13.11	4.71902
13.12	4.71178
13.13	4.72461
13.14	4.70487
13.15	4.70783
13.16	4.71671
13.17	4.71244
13.18	4.71342
13.19	4.71474
13.2	4.7052
13.21	4.70553
13.22	4.70092
13.23	4.70487
13.24	4.70059
13.25	4.70092
13.26	4.70125
13.27	4.70783
13.28	4.70323
13.29	4.71244
13.3	4.70454
13.31	4.70717
13.32	4.69994
13.33	4.71277
13.34	4.70619
13.35	4.7029
13.36	4.70619
13.37	4.70421
13.38	4.69303
13.39	4.6904
13.4	4.70092
13.41	4.69928
13.42	4.70027
13.43	4.69829
13.44	4.69171
13.45	4.70323
13.46	4.71145
13.47	4.70717
13.48	4.69928
13.49	4.7029
13.5	4.69533
13.51	4.70257
13.52	4.69961
13.53	4.70816
13.54	4.70454
13.55	4.70356
13.56	4.68612
13.57	4.69533
13.58	4.70783
13.59	4.68777
13.6	4.6927
13.61	4.68941
13.62	4.68579
13.63	4.67691
13.64	4.68974
13.65	4.70323
13.66	4.70454
13.67	4.70191
13.68	4.69073
13.69	4.68579
13.7	4.69105
13.71	4.69303
13.72	4.69566
13.73	4.68382
13.74	4.69171
13.75	4.69007
13.76	4.68382
13.77	4.68119
13.78	4.68974
13.79	4.68809
13.8	4.68184
13.81	4.69467
13.82	4.68842
13.83	4.69171
13.84	4.6904
13.85	4.68809
13.86	4.69961
13.87	4.69763
13.88	4.69073
13.89	4.69171
13.9	4.68711
13.91	4.68678
13.92	4.69073
13.93	4.68217
13.94	4.69171
13.95	4.69138
13.96	4.68448
13.97	4.6848
13.98	4.68842
13.99	4.69073
14	4.68448
14.01	4.68546
14.02	4.69204
14.03	4.69073
14.04	4.69303
14.05	4.70388
14.06	4.68152
14.07	4.68217
14.08	4.68546
14.09	4.69073
14.1	4.6848
14.11	4.67888
14.12	4.67757
14.13	4.68744
14.14	4.68283
14.15	4.67691
14.16	4.67296
14.17	4.6825
14.18	4.6904
14.19	4.67987
14.2	4.69402
14.21	4.68842
14.22	4.67527
14.23	4.68119
14.24	4.67724
14.25	4.67724
14.26	4.67592
14.27	4.67461
14.28	4.67658
14.29	4.67691
14.3	4.67329
14.31	4.67428
14.32	4.68415
14.33	4.67362
14.34	4.68086
14.35	4.67263
14.36	4.67757
14.37	4.67494
14.38	4.67592
14.39	4.66112
14.4	4.66145
14.41	4.66803
14.42	4.67888
14.43	4.67921
14.44	4.67559
14.45	4.67362
14.46	4.67066
14.47	4.67395
14.48	4.67559
14.49	4.68448
14.5	4.67658
14.51	4.67461
14.52	4.67592
14.53	4.68349
14.54	4.67494
14.55	4.67132
14.56	4.67395
14.57	4.67362
14.58	4.66507
14.59	4.67033
14.6	4.6825
14.61	4.67724
14.62	4.67329
14.63	4.67461
14.64	4.67132
14.65	4.67099
14.66	4.67329
14.67	4.6654
14.68	4.67855
14.69	4.67296
14.7	4.67658
14.71	4.67724
14.72	4.67527
14.73	4.66803
14.74	4.67592
14.75	4.67066
14.76	4.67362
14.77	4.67066
14.78	4.68546
14.79	4.67362
14.8	4.66573
14.81	4.66244
14.82	4.6677
14.83	4.66901
14.84	4.66671
14.85	4.66671
14.86	4.65717
14.87	4.65553
14.88	4.65882
14.89	4.66474
14.9	4.66869
14.91	4.66737
14.92	4.66309
14.93	4.66803
14.94	4.6654
14.95	4.6848
14.96	4.67165
14.97	4.66375
14.98	4.64961
14.99	4.65586
15	4.66244
15.01	4.6598
15.02	4.66112
15.03	4.66737
15.04	4.66309
15.05	4.66046
15.06	4.67165
15.07	4.66013
15.08	4.66079
15.09	4.66013
15.1	4.66244
15.11	4.65717
15.12	4.67165
15.13	4.64928
15.14	4.6552
15.15	4.66408
15.16	4.65948
15.17	4.6654
15.18	4.66276
15.19	4.66276
15.2	4.65684
15.21	4.6552
15.22	4.65125
15.23	4.65619
15.24	4.65619
15.25	4.66309
15.26	4.65915
15.27	4.64862
15.28	4.65092
15.29	4.64928
15.3	4.65882
15.31	4.6575
15.32	4.6575
15.33	4.65125
15.34	4.65553
15.35	4.66309
15.36	4.65487
15.37	4.6529
15.38	4.65882
15.39	4.66145
15.4	4.66803
15.41	4.66309
15.42	4.65191
15.43	4.65322
15.44	4.65092
15.45	4.66211
15.46	4.65059
15.47	4.65487
15.48	4.66079
15.49	4.65586
15.5	4.6529
15.51	4.65224
15.52	4.6529
15.53	4.64632
15.54	4.64862
15.55	4.65454
15.56	4.65586
15.57	4.64895
15.58	4.65026
15.59	4.64665
15.6	4.64171
15.61	4.66276
15.62	4.65882
15.63	4.64928
15.64	4.64763
15.65	4.65322
15.66	4.64895
15.67	4.64533
15.68	4.64138
15.69	4.64533
15.7	4.65355
15.71	4.65125
15.72	4.64369
15.73	4.63743
15.74	4.64961
15.75	4.65092
15.76	4.63842
15.77	4.64007
15.78	4.65158
15.79	4.64632
15.8	4.6427
15.81	4.645
15.82	4.63776
15.83	4.64697
15.84	4.64105
15.85	4.63974
15.86	4.64303
15.87	4.64467
15.88	4.65059
15.89	4.64829
15.9	4.64599
15.91	4.64007
15.92	4.64237
15.93	4.6473
15.94	4.6427
15.95	4.64105
15.96	4.63776
15.97	4.65454
15.98	4.64171
15.99	4.64632
16	4.6529
16.01	4.64237
16.02	4.65454
16.03	4.64928
16.04	4.64467
16.05	4.645
16.06	4.63645
16.07	4.63283
16.08	4.63974
16.09	4.64171
16.1	4.64138
16.11	4.64237
16.12	4.65684
16.13	4.64369
16.14	4.64171
16.15	4.63349
16.16	4.6348
16.17	4.64105
16.18	4.6404
16.19	4.64007
16.2	4.64336
16.21	4.64336
16.22	4.64138
16.23	4.63875
16.24	4.63645
16.25	4.64566
16.26	4.64961
16.27	4.64829
16.28	4.63118
16.29	4.63612
16.3	4.64895
16.31	4.6325
16.32	4.63151
16.33	4.63316
16.34	4.62987
16.35	4.63513
16.36	4.63941
16.37	4.63316
16.38	4.63217
16.39	4.63809
16.4	4.64401
16.41	4.6427
16.42	4.64599
16.43	4.63908
16.44	4.64105
16.45	4.6348
16.46	4.64007
16.47	4.63776
16.48	4.63579
16.49	4.64138
16.5	4.63184
16.51	4.63941
16.52	4.64007
16.53	4.63513
16.54	4.65125
16.55	4.63711
16.56	4.63908
16.57	4.63678
16.58	4.63645
16.59	4.64599
16.6	4.65059
16.61	4.63908
16.62	4.63678
16.63	4.64599
16.64	4.63743
16.65	4.63776
16.66	4.63842
16.67	4.63513
16.68	4.62658
16.69	4.63118
16.7	4.6427
16.71	4.62888
16.72	4.63382
16.73	4.62987
16.74	4.62921
16.75	4.63941
16.76	4.63415
16.77	4.62592
16.78	4.62888
16.79	4.62461
16.8	4.62822
16.81	4.62592
16.82	4.62296
16.83	4.63217
16.84	4.6325
16.85	4.62921
16.86	4.62428
16.87	4.62493
16.88	4.62724
16.89	4.63447
16.9	4.62691
16.91	4.62263
16.92	4.62625
16.93	4.62954
16.94	4.6177
16.95	4.62724
16.96	4.61901
16.97	4.62362
16.98	4.61803
16.99	4.63316
17	4.62493
17.01	4.63316
17.02	4.62164
17.03	4.62132
17.04	4.62921
17.05	4.6348
17.06	4.62724
17.07	4.62461
17.08	4.62724
17.09	4.62921
17.1	4.62559
17.11	4.62559
17.12	4.62855
17.13	4.62559
17.14	4.63053
17.15	4.61737
17.16	4.61441
17.17	4.61934
17.18	4.63217
17.19	4.62395
17.2	4.61572
17.21	4.62822
17.22	4.62132
17.23	4.62296
17.24	4.62132
17.25	4.63283
17.26	4.62987
17.27	4.61967
17.28	4.61868
17.29	4.6223
17.3	4.63151
17.31	4.62987
17.32	4.62493
17.33	4.62987
17.34	4.63053
17.35	4.62362
17.36	4.62592
17.37	4.62757
17.38	4.62493
17.39	4.62526
17.4	4.62132
17.41	4.62066
17.42	4.62066
17.43	4.62691
17.44	4.62099
17.45	4.61605
17.46	4.62559
17.47	4.62921
17.48	4.62395
17.49	4.63809
17.5	4.6348
17.51	4.62329
17.52	4.61211
17.53	4.61539
17.54	4.62197
17.55	4.62263
17.56	4.61539
17.57	4.61178
17.58	4.61572
17.59	4.62
17.6	4.62526
17.61	4.62493
17.62	4.61868
17.63	4.61276
17.64	4.62724
17.65	4.62757
17.66	4.62
17.67	4.62197
17.68	4.6075
17.69	4.61572
17.7	4.62395
17.71	4.61572
17.72	4.61145
17.73	4.62066
17.74	4.63053
17.75	4.61605
17.76	4.61375
17.77	4.61737
17.78	4.61836
17.79	4.61638
17.8	4.61836
17.81	4.61967
17.82	4.63053
17.83	4.6223
17.84	4.62395
17.85	4.62197
17.86	4.61441
17.87	4.61507
17.88	4.60684
17.89	4.60783
17.9	4.62263
17.91	4.61704
17.92	4.61441
17.93	4.61836
17.94	4.62888
17.95	4.61901
17.96	4.61836
17.97	4.61704
17.98	4.60849
17.99	4.62592
18	4.62954
18.01	4.62691
18.02	4.6223
18.03	4.63415
18.04	4.61737
18.05	4.61836
18.06	4.61868
18.07	4.62395
18.08	4.62658
18.09	4.61638
18.1	4.62033
18.11	4.62559
18.12	4.61474
18.13	4.6302
18.14	4.62099
18.15	4.62263
18.16	4.62164
18.17	4.62691
18.18	4.62263
18.19	4.62526
18.2	4.62493
18.21	4.62559
18.22	4.62658
18.23	4.62592
18.24	4.6279
18.25	4.62658
18.26	4.62822
18.27	4.62329
18.28	4.61836
18.29	4.62164
18.3	4.62132
18.31	4.62954
18.32	4.62263
18.33	4.62164
18.34	4.61671
18.35	4.62625
18.36	4.62395
18.37	4.62428
18.38	4.61408
18.39	4.61704
18.4	4.62197
18.41	4.62691
18.42	4.62329
18.43	4.62428
18.44	4.6177
18.45	4.62132
18.46	4.62296
18.47	4.62329
18.48	4.62691
18.49	4.62395
18.5	4.61507
18.51	4.62428
18.52	4.61441
18.53	4.61243
18.54	4.6177
18.55	4.60651
18.56	4.62625
18.57	4.61671
18.58	4.61342
18.59	4.60849
18.6	4.61375
18.61	4.61572
18.62	4.62033
18.63	4.61145
18.64	4.61441
18.65	4.61901
18.66	4.62362
18.67	4.61375
18.68	4.6098
18.69	4.60684
18.7	4.61309
18.71	4.60454
18.72	4.62066
18.73	4.61638
18.74	4.62559
18.75	4.60553
18.76	4.60717
18.77	4.60882
18.78	4.61967
18.79	4.60914
18.8	4.61901
18.81	4.61868
18.82	4.60684
18.83	4.61211
18.84	4.61441
18.85	4.60355
18.86	4.60651
18.87	4.60882
18.88	4.60487
18.89	4.61737
18.9	4.60816
18.91	4.60947
18.92	4.60355
18.93	4.6075
18.94	4.5973
18.95	4.59862
18.96	4.60388
18.97	4.60257
18.98	4.60717
18.99	4.60553
19	4.60421
19.01	4.6075
19.02	4.60191
19.03	4.60553
19.04	4.61046
19.05	4.60059
19.06	4.60454
19.07	4.60618
19.08	4.60585
19.09	4.59928
19.1	4.61112
19.11	4.60783
19.12	4.60882
19.13	4.61507
19.14	4.61178
19.15	4.60355
19.16	4.60125
19.17	4.60849
19.18	4.59401
19.19	4.60158
19.2	4.61638
19.21	4.62592
19.22	4.61013
19.23	4.59039
19.24	4.60289
19.25	4.61112
19.26	4.60947
19.27	4.60585
19.28	4.59895
19.29	4.60651
19.3	4.60388
19.31	4.59138
19.32	4.60618
19.33	4.60289
19.34	4.60849
19.35	4.60882
19.36	4.61309
19.37	4.61013
19.38	4.59928
19.39	4.60684
19.4	4.61178
19.41	4.60125
19.42	4.62164
19.43	4.60684
19.44	4.61605
19.45	4.59829
19.46	4.60026
19.47	4.60355
19.48	4.59993
19.49	4.59862
19.5	4.60289
19.51	4.60914
19.52	4.60257
19.53	4.59993
19.54	4.5973
19.55	4.60322
19.56	4.60289
19.57	4.59599
19.58	4.60092
19.59	4.61605
19.6	4.60454
19.61	4.61375
19.62	4.60717
19.63	4.61243
19.64	4.59993
19.65	4.60388
19.66	4.6052
19.67	4.60684
19.68	4.60257
19.69	4.60849
19.7	4.60783
19.71	4.5973
19.72	4.59993
19.73	4.61342
19.74	4.59829
19.75	4.5927
19.76	4.60059
19.77	4.59664
19.78	4.60289
19.79	4.60322
19.8	4.58842
19.81	4.58941
19.82	4.59368
19.83	4.59368
19.84	4.57625
19.85	4.59368
19.86	4.59862
19.87	4.60224
19.88	4.58743
19.89	4.59697
19.9	4.60092
19.91	4.59434
19.92	4.60257
19.93	4.59204
19.94	4.59171
19.95	4.59335
19.96	4.5973
19.97	4.60125
19.98	4.5871
19.99	4.57921
20	4.58908
20.01	4.59796
20.02	4.59467
20.03	4.58678
20.04	4.58283
20.05	4.59664
20.06	4.60289
20.07	4.59171
20.08	4.58842
20.09	4.58546
20.1	4.58776
20.11	4.59237
20.12	4.60026
20.13	4.60454
20.14	4.59467
20.15	4.58908
20.16	4.59237
20.17	4.59533
20.18	4.59434
20.19	4.59138
20.2	4.595
20.21	4.58974
20.22	4.59204
20.23	4.58743
20.24	4.58447
20.25	4.595
20.26	4.59303
20.27	4.60651
20.28	4.59566
20.29	4.60026
20.3	4.60191
20.31	4.60158
20.32	4.59368
20.33	4.59467
20.34	4.58941
20.35	4.58941
20.36	4.60224
20.37	4.58941
20.38	4.59599
20.39	4.59664
20.4	4.59796
20.41	4.58447
20.42	4.60191
20.43	4.58875
20.44	4.59467
20.45	4.59467
20.46	4.5973
20.47	4.595
20.48	4.59467
20.49	4.60257
20.5	4.5996
20.51	4.59566
20.52	4.60257
20.53	4.58908
20.54	4.58316
20.55	4.59138
20.56	4.59401
20.57	4.5996
20.58	4.59599
20.59	4.58743
20.6	4.59072
20.61	4.5996
20.62	4.59171
20.63	4.58908
20.64	4.58349
20.65	4.60322
20.66	4.60191
20.67	4.59072
20.68	4.59237
20.69	4.59171
20.7	4.58875
20.71	4.58875
20.72	4.58513
20.73	4.58316
20.74	4.5848
20.75	4.58612
20.76	4.59368
20.77	4.60289
20.78	4.59039
20.79	4.58743
20.8	4.58447
20.81	4.58974
20.82	4.5848
20.83	4.59862
20.84	4.595
20.85	4.59533
20.86	4.57428
20.87	4.59368
20.88	4.58776
20.89	4.59303
20.9	4.58974
20.91	4.59928
20.92	4.59566
20.93	4.59007
20.94	4.58184
20.95	4.58283
20.96	4.57526
20.97	4.58283
20.98	4.59171
20.99	4.595
21	4.58809
21.01	4.58151
21.02	4.57756
21.03	4.58546
21.04	4.58381
21.05	4.58743
21.06	4.5802
21.07	4.58184
21.08	4.59204
21.09	4.59138
21.1	4.57
21.11	4.57493
21.12	4.59171
21.13	4.58941
21.14	4.58118
21.15	4.58645
21.16	4.58283
21.17	4.57921
21.18	4.58414
21.19	4.58645
21.2	4.57263
21.21	4.56835
21.22	4.57131
21.23	4.57131
21.24	4.58217
21.25	4.5927
21.26	4.58678
21.27	4.5848
21.28	4.58151
21.29	4.58612
21.3	4.58645
21.31	4.58546
21.32	4.58316
21.33	4.58875
21.34	4.5802
21.35	4.58842
21.36	4.58875
21.37	4.58908
21.38	4.5871
21.39	4.58908
21.4	4.57625
21.41	4.58645
21.42	4.59072
21.43	4.59171
21.44	4.58809
21.45	4.58414
21.46	4.58776
21.47	4.58645
21.48	4.57691
21.49	4.57625
21.5	4.57625
21.51	4.59138
21.52	4.59138
21.53	4.57756
21.54	4.58776
21.55	4.58316
21.56	4.58316
21.57	4.58184
21.58	4.57197
21.59	4.58217
21.6	4.58118
21.61	4.5723
21.62	4.58842
21.63	4.5848
21.64	4.59072
21.65	4.58809
21.66	4.58842
21.67	4.58875
21.68	4.58283
21.69	4.57296
21.7	4.57855
21.71	4.58414
21.72	4.58151
21.73	4.58447
21.74	4.59039
21.75	4.57625
21.76	4.57822
21.77	4.57855
21.78	4.58381
21.79	4.57691
21.8	4.59237
21.81	4.5825
21.82	4.57164
21.83	4.57197
21.84	4.57658
21.85	4.58579
21.86	4.57756
21.87	4.57592
21.88	4.58776
21.89	4.57099
21.9	4.57921
21.91	4.5848
21.92	4.59138
21.93	4.58908
21.94	4.58546
21.95	4.58151
21.96	4.58546
21.97	4.57658
21.98	4.57
21.99	4.58316
22	4.58381
22.01	4.58053
22.02	4.57592
22.03	4.57855
22.04	4.58283
22.05	4.57658
22.06	4.58316
22.07	4.57296
22.08	4.57526
22.09	4.57954
22.1	4.58184
22.11	4.58414
22.12	4.57888
22.13	4.57954
22.14	4.58546
22.15	4.57197
22.16	4.57296
22.17	4.57954
22.18	4.58217
22.19	4.57658
22.2	4.57592
22.21	4.57658
22.22	4.57395
22.23	4.57954
22.24	4.5723
22.25	4.56638
22.26	4.57658
22.27	4.57
22.28	4.57493
22.29	4.56671
22.3	4.57987
22.31	4.57724
22.32	4.56967
22.33	4.5848
22.34	4.57263
22.35	4.57559
22.36	4.58316
22.37	4.56934
22.38	4.56474
22.39	4.57296
22.4	4.57263
22.41	4.57033
22.42	4.5621
22.43	4.57888
22.44	4.57691
22.45	4.57724
22.46	4.57428
22.47	4.57954
22.48	4.56802
22.49	4.57658
22.5	4.57197
22.51	4.56572
22.52	4.57131
22.53	4.57066
22.54	4.56901
22.55	4.57493
22.56	4.56901
22.57	4.56506
22.58	4.56704
22.59	4.5677
22.6	4.56572
22.61	4.57164
22.62	4.57625
22.63	4.57033
22.64	4.57362
22.65	4.57493
22.66	4.57033
22.67	4.56802
22.68	4.57099
22.69	4.57263
22.7	4.56802
22.71	4.57987
22.72	4.5802
22.73	4.57428
22.74	4.56967
22.75	4.57559
22.76	4.5746
22.77	4.58283
22.78	4.56737
22.79	4.56671
22.8	4.57
22.81	4.56967
22.82	4.5723
22.83	4.5746
22.84	4.56868
22.85	4.56605
22.86	4.57428
22.87	4.57
22.88	4.5723
22.89	4.57493
22.9	4.57921
22.91	4.57987
22.92	4.57
22.93	4.57888
22.94	4.57329
22.95	4.57493
22.96	4.58908
22.97	4.58085
22.98	4.57164
22.99	4.56835
23	4.57592
23.01	4.58217
23.02	4.57592
23.03	4.57329
23.04	4.57197
23.05	4.57625
23.06	4.58349
23.07	4.58118
23.08	4.58809
23.09	4.57329
23.1	4.57822
23.11	4.57066
23.12	4.57789
23.13	4.56901
23.14	4.56112
23.15	4.57395
23.16	4.57625
23.17	4.57855
23.18	4.57724
23.19	4.55816
23.2	4.56145
23.21	4.56474
23.22	4.57362
23.23	4.58381
23.24	4.57099
23.25	4.56441
23.26	4.56506
23.27	4.56408
23.28	4.57428
23.29	4.57329
23.3	4.57987
23.31	4.57362
23.32	4.56704
23.33	4.56013
23.34	4.56737
23.35	4.56474
23.36	4.56704
23.37	4.56375
23.38	4.56375
23.39	4.56835
23.4	4.57164
23.41	4.56737
23.42	4.57954
23.43	4.57066
23.44	4.56572
23.45	4.55783
23.46	4.57493
23.47	4.57559
23.48	4.57164
23.49	4.57592
23.5	4.56539
23.51	4.5746
23.52	4.55947
23.53	4.56112
23.54	4.56671
23.55	4.55881
23.56	4.55684
23.57	4.54566
23.58	4.55618
23.59	4.56967
23.6	4.56967
23.61	4.55059
23.62	4.5598
23.63	4.55256
23.64	4.56802
23.65	4.55487
23.66	4.56079
23.67	4.55651
23.68	4.56243
23.69	4.55585
23.7	4.55914
23.71	4.56572
23.72	4.5621
23.73	4.55651
23.74	4.56375
23.75	4.56802
23.76	4.56934
23.77	4.5621
23.78	4.56539
23.79	4.55388
23.8	4.55487
23.81	4.5496
23.82	4.55684
23.83	4.5473
23.84	4.54598
23.85	4.55684
23.86	4.56737
23.87	4.55914
23.88	4.56177
23.89	4.5677
23.9	4.5621
23.91	4.5575
23.92	4.56671
23.93	4.56276
23.94	4.56671
23.95	4.56177
23.96	4.55684
23.97	4.54927
23.98	4.56441
23.99	4.56046
24	4.56375
24.01	4.56934
24.02	4.56506
24.03	4.56835
24.04	4.57592
24.05	4.55487
24.06	4.55651
24.07	4.55158
24.08	4.55947
24.09	4.56375
24.1	4.5575
24.11	4.55388
24.12	4.56013
24.13	4.56375
24.14	4.5598
24.15	4.55125
24.16	4.56375
24.17	4.56868
24.18	4.5496
24.19	4.55487
24.2	4.56572
24.21	4.57033
24.22	4.56572
24.23	4.57493
24.24	4.56737
24.25	4.56638
24.26	4.56177
24.27	4.55684
24.28	4.5575
24.29	4.56671
24.3	4.57033
24.31	4.56474
24.32	4.56342
24.33	4.56835
24.34	4.56572
24.35	4.56441
24.36	4.56934
24.37	4.56474
24.38	4.56112
24.39	4.57197
24.4	4.57099
24.41	4.57526
24.42	4.5802
24.43	4.56605
24.44	4.55421
24.45	4.55849
24.46	4.55914
24.47	4.56112
24.48	4.56934
24.49	4.57263
24.5	4.5746
24.51	4.56605
24.52	4.56408
24.53	4.55717
24.54	4.55914
24.55	4.5621
24.56	4.57033
24.57	4.56342
24.58	4.56112
24.59	4.56704
24.6	4.57724
24.61	4.56967
24.62	4.56737
24.63	4.56375
24.64	4.56013
24.65	4.55454
24.66	4.55421
24.67	4.54467
24.68	4.55849
24.69	4.55585
24.7	4.55059
24.71	4.55881
24.72	4.56539
24.73	4.56441
24.74	4.55355
24.75	4.54796
24.76	4.56474
24.77	4.56539
24.78	4.55322
24.79	4.55783
24.8	4.55158
24.81	4.55717
24.82	4.55158
24.83	4.54829
24.84	4.56112
24.85	4.55388
24.86	4.54796
24.87	4.54697
24.88	4.54895
24.89	4.56408
24.9	4.56572
24.91	4.55618
24.92	4.56046
24.93	4.54204
24.94	4.55651
24.95	4.56079
24.96	4.56901
24.97	4.5621
24.98	4.55947
24.99	4.55125
25	4.55191
25.01	4.55487
25.02	4.54993
25.03	4.54368
25.04	4.55355
25.05	4.55684
25.06	4.55289
25.07	4.53184
25.08	4.54763
25.09	4.56013
25.1	4.55454
25.11	4.5621
25.12	4.545
25.13	4.54598
25.14	4.54566
25.15	4.55355
25.16	4.54566
25.17	4.54533
25.18	4.54796
25.19	4.55552
25.2	4.545
25.21	4.54631
25.22	4.54763
25.23	4.54763
25.24	4.55717
25.25	4.53973
25.26	4.55552
25.27	4.56145
25.28	4.55322
25.29	4.55125
25.3	4.54697
25.31	4.55092
25.32	4.56112
25.33	4.54895
25.34	4.5552
25.35	4.55223
25.36	4.5473
25.37	4.54895
25.38	4.55256
25.39	4.55881
25.4	4.55191
25.41	4.55059
25.42	4.54829
25.43	4.55618
25.44	4.56539
25.45	4.55585
25.46	4.5575
25.47	4.55158
25.48	4.55487
25.49	4.55947
25.5	4.56013
25.51	4.54993
25.52	4.55191
25.53	4.55454
25.54	4.55026
25.55	4.55947
25.56	4.55914
25.57	4.54796
25.58	4.54993
25.59	4.55421
25.6	4.55026
25.61	4.55552
25.62	4.55552
25.63	4.54763
25.64	4.55223
25.65	4.55454
25.66	4.55388
25.67	4.55684
25.68	4.5473
25.69	4.54401
25.7	4.54237
25.71	4.54006
25.72	4.54204
25.73	4.55256
25.74	4.55289
25.75	4.53875
25.76	4.5473
25.77	4.54204
25.78	4.55487
25.79	4.54533
25.8	4.55223
25.81	4.55421
25.82	4.5552
25.83	4.54796
25.84	4.5348
25.85	4.54598
25.86	4.54862
25.87	4.54467
25.88	4.53217
25.89	4.54533
25.9	4.54138
25.91	4.5427
25.92	4.54895
25.93	4.545
25.94	4.53776
25.95	4.53677
25.96	4.54697
25.97	4.54927
25.98	4.55256
25.99	4.54927
26	4.54598
26.01	4.56408
26.02	4.5552
26.03	4.54237
26.04	4.545
26.05	4.54895
26.06	4.54533
26.07	4.54796
26.08	4.55552
26.09	4.55388
26.1	4.54631
26.11	4.55092
26.12	4.54829
26.13	4.55783
26.14	4.56145
26.15	4.54895
26.16	4.55158
26.17	4.54862
26.18	4.55388
26.19	4.55783
26.2	4.53776
26.21	4.5427
26.22	4.55223
26.23	4.54401
26.24	4.54631
26.25	4.54993
26.26	4.56342
26.27	4.55158
26.28	4.55717
26.29	4.54631
26.3	4.5473
26.31	4.5575
26.32	4.55914
26.33	4.54533
26.34	4.55684
26.35	4.56145
26.36	4.54467
26.37	4.55849
26.38	4.55388
26.39	4.54237
26.4	4.5473
26.41	4.5496
26.42	4.54138
26.43	4.55289
26.44	4.5598
26.45	4.56177
26.46	4.54697
26.47	4.54566
26.48	4.54434
26.49	4.55158
26.5	4.55158
26.51	4.54533
26.52	4.55125
26.53	4.54862
26.54	4.54401
26.55	4.54401
26.56	4.54927
26.57	4.5496
26.58	4.54401
26.59	4.54763
26.6	4.53941
26.61	4.53151
26.62	4.54566
26.63	4.55849
26.64	4.55125
26.65	4.53875
26.66	4.53612
26.67	4.53809
26.68	4.55289
26.69	4.54631
26.7	4.54335
26.71	4.54993
26.72	4.54664
26.73	4.54862
26.74	4.54204
26.75	4.55355
26.76	4.54993
26.77	4.54171
26.78	4.55388
26.79	4.54105
26.8	4.54467
26.81	4.54763
26.82	4.54829
26.83	4.55059
26.84	4.54796
26.85	4.55914
26.86	4.55355
26.87	4.53776
26.88	4.54697
26.89	4.545
26.9	4.5496
26.91	4.53644
26.92	4.5371
26.93	4.53776
26.94	4.54204
26.95	4.5473
26.96	4.54895
26.97	4.54566
26.98	4.54566
26.99	4.55421
27	4.54631
27.01	4.54039
27.02	4.53579
27.03	4.54368
27.04	4.55026
27.05	4.54566
27.06	4.54631
27.07	4.54796
27.08	4.53118
27.09	4.53283
27.1	4.54927
27.11	4.5473
27.12	4.52987
27.13	4.54401
27.14	4.54237
27.15	4.54237
27.16	4.52954
27.17	4.54171
27.18	4.53677
27.19	4.54171
27.2	4.54138
27.21	4.53809
27.22	4.54335
27.23	4.53677
27.24	4.53842
27.25	4.53875
27.26	4.53612
27.27	4.52723
27.28	4.53644
27.29	4.53612
27.3	4.54664
27.31	4.53776
27.32	4.53875
27.33	4.53019
27.34	4.53743
27.35	4.53414
27.36	4.52987
27.37	4.5371
27.38	4.53381
27.39	4.53052
27.4	4.53776
27.41	4.53875
27.42	4.53941
27.43	4.53677
27.44	4.53118
27.45	4.52625
27.46	4.53973
27.47	4.53677
27.48	4.54927
27.49	4.54829
27.5	4.5427
27.51	4.54039
27.52	4.53677
27.53	4.5348
27.54	4.54467
27.55	4.54105
27.56	4.54631
27.57	4.54138
27.58	4.54302
27.59	4.54039
27.6	4.54927
27.61	4.52954
27.62	4.54204
27.63	4.53809
27.64	4.53151
27.65	4.5427
27.66	4.54204
27.67	4.5473
27.68	4.53875
27.69	4.52592
27.7	4.54039
27.71	4.52658
27.72	4.54039
27.73	4.54895
27.74	4.54664
27.75	4.53776
27.76	4.52362
27.77	4.52789
27.78	4.5427
27.79	4.54006
27.8	4.53579
27.81	4.53973
27.82	4.54204
27.83	4.54138
27.84	4.53612
27.85	4.53908
27.86	4.52723
27.87	4.52691
27.88	4.53842
27.89	4.53644
27.9	4.53809
27.91	4.53283
27.92	4.52691
27.93	4.53381
27.94	4.54171
27.95	4.54105
27.96	4.54895
27.97	4.53217
27.98	4.52987
27.99	4.52625
28	4.52493
28.01	4.53316
28.02	4.53217
28.03	4.52493
28.04	4.54105
28.05	4.54138
28.06	4.55223
28.07	4.53414
28.08	4.53546
28.09	4.53644
28.1	4.53579
28.11	4.53908
28.12	4.5348
28.13	4.52987
28.14	4.5371
28.15	4.53809
28.16	4.5325
28.17	4.52592
28.18	4.52756
28.19	4.53546
28.2	4.53283
28.21	4.5427
28.22	4.55322
28.23	4.53283
28.24	4.52987
28.25	4.53118
28.26	4.53381
28.27	4.53546
28.28	4.52888
28.29	4.52526
28.3	4.53085
28.31	4.53644
28.32	4.53644
28.33	4.52526
28.34	4.52394
28.35	4.52789
28.36	4.54039
28.37	4.53908
28.38	4.5246
28.39	4.52888
28.4	4.52098
28.41	4.53546
28.42	4.53118
28.43	4.52394
28.44	4.5325
28.45	4.53842
28.46	4.52625
28.47	4.53348
28.48	4.53052
28.49	4.52033
28.5	4.5371
28.51	4.53908
28.52	4.53743
28.53	4.5371
28.54	4.53019
28.55	4.53447
28.56	4.53908
28.57	4.53151
28.58	4.53217
28.59	4.53677
28.6	4.53776
28.61	4.52888
28.62	4.52723
28.63	4.52658
28.64	4.54401
28.65	4.52987
28.66	4.53118
28.67	4.5246
28.68	4.53612
28.69	4.53019
28.7	4.52065
28.71	4.53644
28.72	4.53612
28.73	4.53875
28.74	4.53612
28.75	4.53447
28.76	4.54533
28.77	4.54039
28.78	4.52691
28.79	4.53052
28.8	4.53513
28.81	4.53414
28.82	4.53546
28.83	4.53579
28.84	4.52954
28.85	4.53283
28.86	4.53546
28.87	4.52625
28.88	4.52987
28.89	4.53381
28.9	4.52954
28.91	4.52658
28.92	4.51835
28.93	4.52691
28.94	4.53316
28.95	4.53677
28.96	4.53151
28.97	4.52658
28.98	4.54039
28.99	4.54763
29	4.53348
29.01	4.52658
29.02	4.53447
29.03	4.52592
29.04	4.53151
29.05	4.54138
29.06	4.54171
29.07	4.52855
29.08	4.52756
29.09	4.5348
29.1	4.53546
29.11	4.52987
29.12	4.53151
29.13	4.53414
29.14	4.53809
29.15	4.52789
29.16	4.53381
29.17	4.53612
29.18	4.5325
29.19	4.52921
29.2	4.52263
29.21	4.53217
29.22	4.53941
29.23	4.53414
29.24	4.53348
29.25	4.53184
29.26	4.5348
29.27	4.53151
29.28	4.5427
29.29	4.53776
29.3	4.53612
29.31	4.53414
29.32	4.52164
29.33	4.53875
29.34	4.54763
29.35	4.53085
29.36	4.52888
29.37	4.53052
29.38	4.53941
29.39	4.5427
29.4	4.52756
29.41	4.52658
29.42	4.5427
29.43	4.53283
29.44	4.52427
29.45	4.53579
29.46	4.52296
29.47	4.53579
29.48	4.5348
29.49	4.52691
29.5	4.5325
29.51	4.53151
29.52	4.52822
29.53	4.53283
29.54	4.52197
29.55	4.52329
29.56	4.52954
29.57	4.51769
29.58	4.52822
29.59	4.52691
29.6	4.52954
29.61	4.51638
29.62	4.52691
29.63	4.52427
29.64	4.52329
29.65	4.5223
29.66	4.52197
29.67	4.52921
29.68	4.51835
29.69	4.51835
29.7	4.52855
29.71	4.53875
29.72	4.52033
29.73	4.53677
29.74	4.52296
29.75	4.52427
29.76	4.52822
29.77	4.52954
29.78	4.52197
29.79	4.52427
29.8	4.53118
29.81	4.53118
29.82	4.52888
29.83	4.53414
29.84	4.53052
29.85	4.51802
29.86	4.52888
29.87	4.52263
29.88	4.52065
29.89	4.52625
29.9	4.53381
29.91	4.52559
29.92	4.52427
29.93	4.52362
29.94	4.53283
29.95	4.54171
29.96	4.54105
29.97	4.53842
29.98	4.52559
29.99	4.53743
30	4.53612
