"BIO-KINE ASCII FILE"
"_COMMENT"	"MOS-500 Spectrometer"
"_COMMENT"	"Kinetics measurement"
"_COMMENT"	"Y Unit : Volt,  X Unit : s"
"_COMMENT"	"Excitation wavelength : 380 nm"
"_COMMENT"	"Fentes bandwidth =  1 nm"
"_COMMENT"	"HV= 1000V"
"_COMMENT"	"Timebase  1 =  .01 s   5001 pts"
"_SFM"	"SFM-400 /S  Advanced mode"
"_SFM"	"Ratio : S1: 2.5, S2: 0, S3: 0, S4: 1"
"_SFM"	"Content : S1: , S2: , S3: , S4:"
"_SFM"	"Concentration : S1: , S2: , S3: , S4:"
"_SFM"	"Total volume : 209 µl  Flow : 3.5 mL/s"
"_SFM"	"Acquisition start :  10 ms before stop"
"_SFM"	"cuve=FC-15, s1=10 ml , s2=10 ml , s3=10 ml , s4=1.9 ml"
"_UNITX"	"s"
"_UNITY"	"Volt"
"_DELTAX"	0
"_DATA"
1e-300	8.44083
0.01	8.59609
0.02	8.62504
0.03	8.76682
0.04	8.96485
0.05	8.99216
0.06	8.99972
0.07	8.99347
0.08	9.04874
0.09	9.03492
0.1	9.08032
0.11	9.01485
0.12	9.05071
0.13	9.01156
0.14	8.99841
0.15	9.0688
0.16	9.09018
0.17	9.0938
0.18	9.05466
0.19	9.04841
0.2	9.03821
0.21	9.01617
0.22	9.02406
0.23	9.02012
0.24	9.01189
0.25	9.06189
0.26	9.13393
0.27	9.08525
0.28	9.00301
0.29	9.04939
0.3	9.04643
0.31	8.98097
0.32	9.03525
0.33	8.99841
0.34	9.00334
0.35	9.03295
0.36	8.96781
0.37	9.03459
0.38	9.01189
0.39	9.03196
0.4	9.03887
0.41	9.00334
0.42	9.04874
0.43	8.99413
0.44	8.98327
0.45	8.90367
0.46	8.94742
0.47	8.99446
0.48	8.98919
0.49	8.97176
0.5	8.9415
0.51	8.91123
0.52	8.95071
0.53	8.95465
0.54	8.94873
0.55	8.91419
0.56	8.93952
0.57	8.97242
0.58	8.94051
0.59	8.95663
0.6	8.95433
0.61	8.93623
0.62	8.98558
0.63	8.92176
0.64	8.94511
0.65	8.95104
0.66	8.94544
0.67	8.93393
0.68	8.88426
0.69	8.91748
0.7	8.86617
0.71	8.91452
0.72	8.87077
0.73	8.95663
0.74	8.94939
0.75	8.90498
0.76	8.8563
0.77	8.83393
0.78	8.87702
0.79	8.87143
0.8	8.82801
0.81	8.84544
0.82	8.83064
0.83	8.82209
0.84	8.8688
0.85	8.86781
0.86	8.83064
0.87	8.83755
0.88	8.86321
0.89	8.83623
0.9	8.82899
0.91	8.83031
0.92	8.81518
0.93	8.82538
0.94	8.79182
0.95	8.7484
0.96	8.75366
0.97	8.74445
0.98	8.76649
0.99	8.74873
1	8.78064
1.01	8.76156
1.02	8.77439
1.03	8.72669
1.04	8.81978
1.05	8.79906
1.06	8.66616
1.07	8.75103
1.08	8.77274
1.09	8.78327
1.1	8.77669
1.11	8.76123
1.12	8.79215
1.13	8.77373
1.14	8.74314
1.15	8.68425
1.16	8.67899
1.17	8.65695
1.18	8.68327
1.19	8.71879
1.2	8.71452
1.21	8.7609
1.22	8.68557
1.23	8.66583
1.24	8.60136
1.25	8.69346
1.26	8.63721
1.27	8.67471
1.28	8.68425
1.29	8.67833
1.3	8.64083
1.31	8.63294
1.32	8.66945
1.33	8.64675
1.34	8.69577
1.35	8.65925
1.36	8.66485
1.37	8.63195
1.38	8.64906
1.39	8.63327
1.4	8.6507
1.41	8.62406
1.42	8.64116
1.43	8.63886
1.44	8.62438
1.45	8.62767
1.46	8.58984
1.47	8.58491
1.48	8.64248
1.49	8.61123
1.5	8.6461
1.51	8.63754
1.52	8.63491
1.53	8.59511
1.54	8.60563
1.55	8.62767
1.56	8.58853
1.57	8.63327
1.58	8.65004
1.59	8.59609
1.6	8.55465
1.61	8.55761
1.62	8.55662
1.63	8.63919
1.64	8.63031
1.65	8.55629
1.66	8.57603
1.67	8.54872
1.68	8.57833
1.69	8.5734
1.7	8.5609
1.71	8.50991
1.72	8.50629
1.73	8.51813
1.74	8.46024
1.75	8.49247
1.76	8.48491
1.77	8.53096
1.78	8.51287
1.79	8.49214
1.8	8.50826
1.81	8.51122
1.82	8.47307
1.83	8.49083
1.84	8.46024
1.85	8.50168
1.86	8.44478
1.87	8.47142
1.88	8.47866
1.89	8.48359
1.9	8.5178
1.91	8.48886
1.92	8.4257
1.93	8.4553
1.94	8.3928
1.95	8.38721
1.96	8.39116
1.97	8.45826
1.98	8.46517
1.99	8.40925
2	8.43688
2.01	8.40695
2.02	8.44741
2.03	8.44938
2.04	8.40135
2.05	8.44412
2.06	8.46714
2.07	8.44149
2.08	8.47964
2.09	8.48425
2.1	8.43326
2.11	8.40464
2.12	8.36221
2.13	8.37142
2.14	8.41089
2.15	8.36747
2.16	8.34675
2.17	8.4257
2.18	8.45004
2.19	8.39642
2.2	8.40793
2.21	8.3928
2.22	8.43392
2.23	8.41188
2.24	8.37142
2.25	8.42274
2.26	8.41056
2.27	8.38293
2.28	8.40991
2.29	8.37306
2.3	8.36517
2.31	8.35826
2.32	8.34642
2.33	8.31155
2.34	8.36912
2.35	8.3701
2.36	8.33293
2.37	8.32142
2.38	8.25661
2.39	8.25003
2.4	8.22701
2.41	8.27767
2.42	8.28096
2.43	8.3053
2.44	8.28753
2.45	8.29214
2.46	8.29181
2.47	8.29313
2.48	8.29905
2.49	8.30365
2.5	8.29773
2.51	8.21944
2.52	8.2247
2.53	8.29115
2.54	8.28227
2.55	8.25957
2.56	8.26846
2.57	8.28128
2.58	8.24872
2.59	8.26319
2.6	8.25365
2.61	8.22865
2.62	8.24477
2.63	8.23161
2.64	8.23392
2.65	8.26484
2.66	8.26221
2.67	8.20332
2.68	8.22865
2.69	8.20168
2.7	8.18128
2.71	8.18523
2.72	8.21582
2.73	8.20563
2.74	8.18885
2.75	8.13951
2.76	8.15727
2.77	8.17865
2.78	8.16878
2.79	8.13687
2.8	8.15332
2.81	8.23424
2.82	8.19872
2.83	8.15102
2.84	8.15102
2.85	8.19773
2.86	8.1201
2.87	8.11779
2.88	8.16319
2.89	8.15497
2.9	8.14247
2.91	8.13391
2.92	8.15135
2.93	8.17108
2.94	8.12075
2.95	8.12799
2.96	8.14937
2.97	8.13128
2.98	8.13852
2.99	8.12964
3	8.11747
3.01	8.13194
3.02	8.13753
3.03	8.10529
3.04	8.11648
3.05	8.07964
3.06	8.07832
3.07	8.12931
3.08	8.13885
3.09	8.09641
3.1	8.02766
3.11	8.08128
3.12	8.07141
3.13	8.08227
3.14	8.08687
3.15	8.06023
3.16	8.0395
3.17	8.12733
3.18	8.08227
3.19	8.10003
3.2	8.10431
3.21	8.06253
3.22	8.14082
3.23	8.09641
3.24	7.97404
3.25	8.01582
3.26	7.99049
3.27	7.99641
3.28	8.02602
3.29	7.98095
3.3	8.0043
3.31	8.01417
3.32	8.01417
3.33	8.08687
3.34	8.06944
3.35	8.02996
3.36	7.9997
3.37	8.02108
3.38	8.01384
3.39	8.00003
3.4	7.99937
3.41	8.01582
3.42	8.01253
3.43	8.02667
3.44	8.0099
3.45	8.01746
3.46	8.01319
3.47	8.03325
3.48	7.9872
3.49	8.02766
3.5	7.93786
3.51	7.95957
3.52	7.95233
3.53	7.99213
3.54	7.98292
3.55	7.92503
3.56	7.95365
3.57	7.91713
3.58	7.90068
3.59	7.92042
3.6	7.9395
3.61	7.96384
3.62	7.92437
3.63	7.93621
3.64	7.96022
3.65	7.95266
3.66	7.91746
3.67	7.90332
3.68	7.91647
3.69	7.89937
3.7	7.92437
3.71	7.94147
3.72	7.95924
3.73	7.92404
3.74	7.87272
3.75	7.92404
3.76	7.927
3.77	7.89805
3.78	7.87667
3.79	7.87667
3.8	7.89213
3.81	7.90595
3.82	7.90759
3.83	7.88128
3.84	7.89641
3.85	7.85035
3.86	7.87305
3.87	7.85627
3.88	7.83818
3.89	7.87009
3.9	7.86285
3.91	7.85562
3.92	7.89509
3.93	7.89378
3.94	7.80364
3.95	7.85331
3.96	7.87634
3.97	7.86384
3.98	7.85792
3.99	7.86351
4	7.78226
4.01	7.81055
4.02	7.83785
4.03	7.83226
4.04	7.87404
4.05	7.82338
4.06	7.81713
4.07	7.77634
4.08	7.82568
4.09	7.84871
4.1	7.84575
4.11	7.84016
4.12	7.84213
4.13	7.82864
4.14	7.79081
4.15	7.78292
4.16	7.79838
4.17	7.79246
4.18	7.79542
4.19	7.75002
4.2	7.80594
4.21	7.77042
4.22	7.78654
4.23	7.82897
4.24	7.78522
4.25	7.75627
4.26	7.78029
4.27	7.8191
4.28	7.77798
4.29	7.71482
4.3	7.79805
4.31	7.80035
4.32	7.81614
4.33	7.75035
4.34	7.76614
4.35	7.76088
4.36	7.78029
4.37	7.69673
4.38	7.752
4.39	7.77272
4.4	7.76154
4.41	7.78522
4.42	7.78621
4.43	7.74739
4.44	7.72403
4.45	7.72469
4.46	7.75035
4.47	7.73456
4.48	7.77798
4.49	7.73456
4.5	7.77206
4.51	7.72535
4.52	7.68489
4.53	7.69936
4.54	7.74081
4.55	7.71482
4.56	7.70792
4.57	7.66713
4.58	7.70627
4.59	7.73884
4.6	7.68884
4.61	7.70561
4.62	7.73588
4.63	7.70923
4.64	7.68193
4.65	7.68982
4.66	7.71022
4.67	7.71515
4.68	7.72436
4.69	7.68555
4.7	7.65824
4.71	7.63851
4.72	7.66778
4.73	7.66219
4.74	7.56647
4.75	7.60857
4.76	7.66614
4.77	7.65463
4.78	7.63456
4.79	7.65495
4.8	7.66548
4.81	7.63259
4.82	7.63324
4.83	7.68555
4.84	7.62074
4.85	7.63653
4.86	7.66811
4.87	7.63456
4.88	7.64574
4.89	7.63423
4.9	7.60528
4.91	7.62008
4.92	7.66285
4.93	7.61449
4.94	7.63686
4.95	7.61219
4.96	7.61482
4.97	7.64969
4.98	7.62436
4.99	7.59936
5	7.61449
5.01	7.63127
5.02	7.59804
5.03	7.61186
5.04	7.57337
5.05	7.58489
5.06	7.62107
5.07	7.68094
5.08	7.62436
5.09	7.56416
5.1	7.61186
5.11	7.6237
5.12	7.60594
5.13	7.59541
5.14	7.59015
5.15	7.61778
5.16	7.60166
5.17	7.58357
5.18	7.57337
5.19	7.59772
5.2	7.58258
5.21	7.59212
5.22	7.57469
5.23	7.55857
5.24	7.576
5.25	7.51449
5.26	7.5566
5.27	7.56877
5.28	7.55429
5.29	7.53653
5.3	7.49442
5.31	7.49179
5.32	7.51383
5.33	7.49738
5.34	7.55956
5.35	7.55989
5.36	7.46416
5.37	7.49771
5.38	7.5612
5.39	7.5237
5.4	7.52403
5.41	7.51186
5.42	7.50923
5.43	7.53587
5.44	7.53324
5.45	7.50594
5.46	7.50363
5.47	7.53916
5.48	7.49903
5.49	7.48587
5.5	7.48061
5.51	7.46416
5.52	7.50758
5.53	7.52567
5.54	7.51482
5.55	7.54245
5.56	7.52765
5.57	7.56186
5.58	7.51416
5.59	7.47863
5.6	7.50331
5.61	7.4737
5.62	7.43225
5.63	7.4635
5.64	7.47567
5.65	7.46515
5.66	7.50824
5.67	7.50298
5.68	7.50692
5.69	7.46613
5.7	7.50363
5.71	7.52732
5.72	7.48949
5.73	7.48653
5.74	7.46317
5.75	7.48883
5.76	7.48423
5.77	7.48127
5.78	7.5191
5.79	7.5214
5.8	7.48784
5.81	7.47699
5.82	7.43094
5.83	7.41844
5.84	7.48686
5.85	7.4237
5.86	7.40758
5.87	7.43192
5.88	7.42008
5.89	7.44804
5.9	7.45067
5.91	7.42469
5.92	7.41646
5.93	7.42436
5.94	7.4362
5.95	7.4033
5.96	7.44969
5.97	7.43324
5.98	7.42469
5.99	7.4237
6	7.4487
6.01	7.42469
6.02	7.43225
6.03	7.40626
6.04	7.41811
6.05	7.40988
6.06	7.41712
6.07	7.39278
6.08	7.3556
6.09	7.4339
6.1	7.39607
6.11	7.37732
6.12	7.36317
6.13	7.35264
6.14	7.39212
6.15	7.35593
6.16	7.36679
6.17	7.40232
6.18	7.39508
6.19	7.40791
6.2	7.41811
6.21	7.31481
6.22	7.39212
6.23	7.39804
6.24	7.37074
6.25	7.36547
6.26	7.37633
6.27	7.34738
6.28	7.29541
6.29	7.29968
6.3	7.35922
6.31	7.34278
6.32	7.36909
6.33	7.376
6.34	7.33685
6.35	7.29935
6.36	7.3681
6.37	7.38357
6.38	7.36975
6.39	7.37074
6.4	7.3635
6.41	7.36909
6.42	7.36251
6.43	7.33916
6.44	7.32962
6.45	7.35166
6.46	7.33389
6.47	7.31876
6.48	7.30692
6.49	7.34606
6.5	7.3283
6.51	7.33521
6.52	7.31152
6.53	7.28817
6.54	7.25593
6.55	7.3056
6.56	7.30593
6.57	7.30462
6.58	7.31449
6.59	7.26646
6.6	7.32106
6.61	7.25692
6.62	7.36514
6.63	7.34179
6.64	7.3408
6.65	7.29771
6.66	7.29245
6.67	7.29047
6.68	7.2806
6.69	7.28389
6.7	7.26383
6.71	7.31909
6.72	7.33389
6.73	7.25363
6.74	7.28948
6.75	7.27008
6.76	7.29179
6.77	7.31745
6.78	7.2283
6.79	7.2533
6.8	7.24804
6.81	7.21744
6.82	7.28126
6.83	7.24014
6.84	7.28225
6.85	7.32205
6.86	7.23126
6.87	7.20067
6.88	7.25758
6.89	7.21086
6.9	7.24836
6.91	7.30659
6.92	7.31547
6.93	7.27468
6.94	7.2533
6.95	7.26448
6.96	7.226
6.97	7.17369
6.98	7.21843
6.99	7.251
7	7.27896
7.01	7.28126
7.02	7.2306
7.03	7.25758
7.04	7.25231
7.05	7.18915
7.06	7.23948
7.07	7.19738
7.08	7.20757
7.09	7.21317
7.1	7.19211
7.11	7.21218
7.12	7.18981
7.13	7.18224
7.14	7.19409
7.15	7.2056
7.16	7.21679
7.17	7.28521
7.18	7.23981
7.19	7.21382
7.2	7.23455
7.21	7.26646
7.22	7.19738
7.23	7.22271
7.24	7.1783
7.25	7.20823
7.26	7.19672
7.27	7.18981
7.28	7.21152
7.29	7.19277
7.3	7.19113
7.31	7.21744
7.32	7.21481
7.33	7.21086
7.34	7.1931
7.35	7.15132
7.36	7.16744
7.37	7.20297
7.38	7.19836
7.39	7.20823
7.4	7.16086
7.41	7.17534
7.42	7.19014
7.43	7.22106
7.44	7.1931
7.45	7.19639
7.46	7.20725
7.47	7.20856
7.48	7.1783
7.49	7.19442
7.5	7.19442
7.51	7.18093
7.52	7.15461
7.53	7.14244
7.54	7.18849
7.55	7.19869
7.56	7.14836
7.57	7.18882
7.58	7.15395
7.59	7.1454
7.6	7.11777
7.61	7.16974
7.62	7.14178
7.63	7.14639
7.64	7.13027
7.65	7.15988
7.66	7.14935
7.67	7.12928
7.68	7.17369
7.69	7.17007
7.7	7.11119
7.71	7.17106
7.72	7.17402
7.73	7.1408
7.74	7.12139
7.75	7.14409
7.76	7.09672
7.77	7.0556
7.78	7.10132
7.79	7.16514
7.8	7.18192
7.81	7.13191
7.82	7.10527
7.83	7.13652
7.84	7.14277
7.85	7.09705
7.86	7.05823
7.87	7.09211
7.88	7.08389
7.89	7.08849
7.9	7.1056
7.91	7.11316
7.92	7.10264
7.93	7.09573
7.94	7.05823
7.95	7.08619
7.96	7.14244
7.97	7.11316
7.98	7.09047
7.99	7.08586
8	7.11941
8.01	7.0681
8.02	7.0681
8.03	7.08454
8.04	7.09935
8.05	7.0431
8.06	7.09145
8.07	7.07632
8.08	7.08685
8.09	7.08422
8.1	7.10362
8.11	7.10987
8.12	7.09573
8.13	7.08224
8.14	7.10823
8.15	7.06645
8.16	7.05428
8.17	7.14244
8.18	7.06678
8.19	7.05922
8.2	7.06415
8.21	7.01481
8.22	7.07139
8.23	7.02566
8.24	7.04573
8.25	7.11481
8.26	7.07895
8.27	7.14113
8.28	7.11415
8.29	7.1283
8.3	7.0829
8.31	7.03125
8.32	7.0125
8.33	7.07172
8.34	7.06152
8.35	7.04408
8.36	7.04869
8.37	7.09343
8.38	7.01777
8.39	7.02007
8.4	7.0352
8.41	7.07928
8.42	7.11547
8.43	7.11711
8.44	7.11876
8.45	7.07237
8.46	7.02961
8.47	7.05329
8.48	7.025
8.49	7.0329
8.5	7.08619
8.51	7.0852
8.52	7.04704
8.53	7.12599
8.54	7.06678
8.55	7.04112
8.56	6.97237
8.57	6.99606
8.58	7.00395
8.59	7.02171
8.6	7.0352
8.61	7.04244
8.62	7.03948
8.63	7.03257
8.64	7.09277
8.65	6.99573
8.66	7.02994
8.67	7.06316
8.68	7.05494
8.69	6.98652
8.7	7.01053
8.71	7.04902
8.72	6.97763
8.73	7.00921
8.74	6.97698
8.75	7.00033
8.76	7.04507
8.77	7.0227
8.78	6.91842
8.79	6.97796
8.8	7.01448
8.81	7.0227
8.82	7.0102
8.83	6.98849
8.84	7.01217
8.85	6.97007
8.86	7.02237
8.87	7.01941
8.88	6.97369
8.89	6.98948
8.9	7.02731
8.91	6.95855
8.92	6.95724
8.93	6.9727
8.94	7.02139
8.95	6.96119
8.96	6.97434
8.97	6.96316
8.98	6.98191
8.99	6.98388
9	6.98323
9.01	6.99573
9.02	6.9375
9.03	6.95428
9.04	6.95592
9.05	6.98849
9.06	6.99112
9.07	6.94211
9.08	7.00428
9.09	6.96382
9.1	7.02829
9.11	7.02533
9.12	6.94803
9.13	6.95198
9.14	6.98816
9.15	6.92105
9.16	6.92007
9.17	6.97665
9.18	6.9579
9.19	6.97895
9.2	6.96809
9.21	6.96086
9.22	6.95987
9.23	6.90888
9.24	6.95329
9.25	6.96777
9.26	6.97106
9.27	6.94079
9.28	6.9227
9.29	6.92237
9.3	6.93915
9.31	6.95987
9.32	6.98816
9.33	6.93421
9.34	6.94046
9.35	6.9398
9.36	6.90822
9.37	6.95888
9.38	6.96579
9.39	6.95099
9.4	6.93553
9.41	7.02007
9.42	6.93224
9.43	6.95132
9.44	6.92171
9.45	6.92336
9.46	6.92632
9.47	6.93158
9.48	6.88355
9.49	6.9125
9.5	6.96053
9.51	6.98553
9.52	6.9227
9.53	6.94309
9.54	6.97731
9.55	6.97204
9.56	6.94605
9.57	6.91053
9.58	6.90691
9.59	6.90855
9.6	6.93684
9.61	6.95494
9.62	6.90362
9.63	6.90526
9.64	6.96612
9.65	6.9625
9.66	6.92829
9.67	6.94671
9.68	6.92105
9.69	6.9375
9.7	6.93915
9.71	6.9079
9.72	6.89178
9.73	6.93915
9.74	6.94375
9.75	6.93224
9.76	6.91316
9.77	6.90592
9.78	6.8954
9.79	6.89243
9.8	6.92171
9.81	6.9579
9.82	6.92566
9.83	6.93026
9.84	6.8954
9.85	6.87599
9.86	6.88257
9.87	6.86382
9.88	6.92829
9.89	6.9
9.9	6.89836
9.91	6.96217
9.92	6.91184
9.93	6.9273
9.94	6.91678
9.95	6.90165
9.96	6.87664
9.97	6.90493
9.98	6.91908
9.99	6.85592
10	6.91316
10.01	6.88783
10.02	6.88783
10.03	6.90033
10.04	6.89737
10.05	6.86612
10.06	6.90855
10.07	6.8727
10.08	6.89836
10.09	6.86283
10.1	6.92599
10.11	6.92105
10.12	6.95362
10.13	6.88586
10.14	6.89737
10.15	6.86809
10.16	6.83059
10.17	6.8273
10.18	6.84934
10.19	6.87204
10.2	6.84375
10.21	6.8171
10.22	6.86118
10.23	6.90132
10.24	6.86645
10.25	6.83125
10.26	6.84506
10.27	6.89243
10.28	6.90954
10.29	6.88783
10.3	6.88684
10.31	6.87204
10.32	6.88092
10.33	6.83158
10.34	6.81579
10.35	6.88158
10.36	6.84276
10.37	6.82895
10.38	6.85724
10.39	6.82599
10.4	6.81052
10.41	6.89112
10.42	6.89375
10.43	6.83487
10.44	6.80756
10.45	6.86809
10.46	6.86053
10.47	6.82171
10.48	6.83454
10.49	6.86612
10.5	6.84309
10.51	6.82434
10.52	6.79704
10.53	6.80855
10.54	6.84671
10.55	6.85526
10.56	6.85395
10.57	6.84967
10.58	6.77204
10.59	6.82302
10.6	6.82829
10.61	6.85493
10.62	6.83388
10.63	6.85658
10.64	6.82927
10.65	6.80263
10.66	6.77927
10.67	6.78914
10.68	6.79243
10.69	6.82006
10.7	6.84868
10.71	6.84013
10.72	6.86085
10.73	6.84506
10.74	6.83421
10.75	6.82105
10.76	6.74671
10.77	6.79013
10.78	6.80066
10.79	6.81546
10.8	6.80131
10.81	6.79934
10.82	6.81612
10.83	6.8273
10.84	6.80098
10.85	6.87961
10.86	6.74243
10.87	6.79046
10.88	6.78158
10.89	6.81316
10.9	6.82171
10.91	6.82697
10.92	6.79638
10.93	6.82862
10.94	6.81842
10.95	6.83783
10.96	6.8023
10.97	6.78848
10.98	6.79079
10.99	6.81579
11	6.82862
11.01	6.78322
11.02	6.82895
11.03	6.8148
11.04	6.78947
11.05	6.78256
11.06	6.77763
11.07	6.81677
11.08	6.76217
11.09	6.74375
11.1	6.79177
11.11	6.83717
11.12	6.81118
11.13	6.82335
11.14	6.7898
11.15	6.74638
11.16	6.7546
11.17	6.80164
11.18	6.82927
11.19	6.83026
11.2	6.78651
11.21	6.79441
11.22	6.81645
11.23	6.77204
11.24	6.78585
11.25	6.81743
11.26	6.78717
11.27	6.80066
11.28	6.8102
11.29	6.79572
11.3	6.77269
11.31	6.85428
11.32	6.83783
11.33	6.7977
11.34	6.77467
11.35	6.79868
11.36	6.8148
11.37	6.82434
11.38	6.76447
11.39	6.75065
11.4	6.79145
11.41	6.79967
11.42	6.7921
11.43	6.77862
11.44	6.79671
11.45	6.79572
11.46	6.76414
11.47	6.84474
11.48	6.79868
11.49	6.75822
11.5	6.79802
11.51	6.79605
11.52	6.78947
11.53	6.80526
11.54	6.8125
11.55	6.78322
11.56	6.77302
11.57	6.78914
11.58	6.76546
11.59	6.74605
11.6	6.7375
11.61	6.72565
11.62	6.78684
11.63	6.74736
11.64	6.77993
11.65	6.77467
11.66	6.7875
11.67	6.79309
11.68	6.76842
11.69	6.73618
11.7	6.73585
11.71	6.72467
11.72	6.75559
11.73	6.76348
11.74	6.74868
11.75	6.74144
11.76	6.75
11.77	6.77171
11.78	6.76151
11.79	6.76612
11.8	6.74835
11.81	6.725
11.82	6.75658
11.83	6.77862
11.84	6.78191
11.85	6.75493
11.86	6.80131
11.87	6.77894
11.88	6.74342
11.89	6.72269
11.9	6.7546
11.91	6.79605
11.92	6.74671
11.93	6.72368
11.94	6.73815
11.95	6.76513
11.96	6.75822
11.97	6.75427
11.98	6.7773
11.99	6.75197
12	6.74473
12.01	6.72236
12.02	6.71611
12.03	6.7625
12.04	6.75394
12.05	6.70065
12.06	6.7296
12.07	6.7977
12.08	6.83191
12.09	6.72302
12.1	6.7398
12.11	6.78914
12.12	6.68289
12.13	6.73158
12.14	6.74243
12.15	6.77072
12.16	6.70921
12.17	6.75822
12.18	6.7273
12.19	6.73125
12.2	6.76118
12.21	6.74144
12.22	6.75888
12.23	6.74868
12.24	6.76283
12.25	6.7194
12.26	6.69703
12.27	6.73519
12.28	6.76546
12.29	6.76579
12.3	6.72894
12.31	6.67763
12.32	6.68157
12.33	6.71315
12.34	6.77401
12.35	6.73421
12.36	6.74046
12.37	6.71579
12.38	6.69276
12.39	6.76184
12.4	6.74408
12.41	6.74111
12.42	6.68486
12.43	6.77335
12.44	6.74144
12.45	6.76052
12.46	6.73783
12.47	6.72927
12.48	6.72697
12.49	6.77204
12.5	6.70592
12.51	6.70789
12.52	6.7148
12.53	6.73815
12.54	6.75723
12.55	6.70197
12.56	6.72105
12.57	6.74835
12.58	6.74144
12.59	6.70986
12.6	6.76019
12.61	6.73684
12.62	6.70723
12.63	6.70953
12.64	6.68453
12.65	6.70361
12.66	6.69835
12.67	6.7125
12.68	6.68782
12.69	6.70131
12.7	6.69605
12.71	6.69375
12.72	6.69407
12.73	6.72302
12.74	6.69243
12.75	6.6898
12.76	6.68256
12.77	6.70888
12.78	6.68782
12.79	6.68289
12.8	6.70328
12.81	6.67894
12.82	6.6546
12.83	6.6421
12.84	6.70592
12.85	6.73618
12.86	6.71348
12.87	6.68322
12.88	6.73256
12.89	6.70493
12.9	6.68651
12.91	6.68157
12.92	6.71907
12.93	6.72532
12.94	6.72138
12.95	6.7046
12.96	6.72039
12.97	6.68552
12.98	6.67631
12.99	6.68749
13	6.66447
13.01	6.67697
13.02	6.7194
13.03	6.65559
13.04	6.6694
13.05	6.69046
13.06	6.67796
13.07	6.67631
13.08	6.68519
13.09	6.65986
13.1	6.70328
13.11	6.68815
13.12	6.70789
13.13	6.69013
13.14	6.6671
13.15	6.66578
13.16	6.71151
13.17	6.69276
13.18	6.67598
13.19	6.65953
13.2	6.62762
13.21	6.67796
13.22	6.65559
13.23	6.66973
13.24	6.68749
13.25	6.72138
13.26	6.66118
13.27	6.72894
13.28	6.7
13.29	6.6421
13.3	6.65559
13.31	6.68618
13.32	6.68355
13.33	6.66842
13.34	6.67499
13.35	6.65526
13.36	6.66085
13.37	6.65822
13.38	6.60657
13.39	6.65526
13.4	6.65164
13.41	6.64966
13.42	6.67598
13.43	6.70789
13.44	6.67138
13.45	6.63914
13.46	6.6694
13.47	6.68026
13.48	6.6523
13.49	6.68684
13.5	6.70921
13.51	6.69342
13.52	6.70723
13.53	6.65822
13.54	6.66776
13.55	6.6444
13.56	6.68092
13.57	6.66842
13.58	6.62664
13.59	6.60131
13.6	6.65624
13.61	6.65361
13.62	6.60822
13.63	6.66907
13.64	6.68651
13.65	6.62861
13.66	6.6342
13.67	6.66184
13.68	6.6921
13.69	6.66052
13.7	6.6523
13.71	6.69967
13.72	6.66513
13.73	6.64013
13.74	6.64769
13.75	6.61183
13.76	6.63355
13.77	6.66644
13.78	6.7148
13.79	6.65888
13.8	6.64605
13.81	6.61644
13.82	6.66447
13.83	6.65427
13.84	6.68355
13.85	6.62598
13.86	6.68684
13.87	6.61809
13.88	6.64177
13.89	6.60197
13.9	6.67302
13.91	6.64045
13.92	6.69013
13.93	6.65559
13.94	6.65559
13.95	6.62499
13.96	6.57433
13.97	6.61151
13.98	6.67368
13.99	6.69473
14	6.68322
14.01	6.66217
14.02	6.66809
14.03	6.61841
14.04	6.62664
14.05	6.65131
14.06	6.65657
14.07	6.62664
14.08	6.64407
14.09	6.62795
14.1	6.64934
14.11	6.61776
14.12	6.63157
14.13	6.63552
14.14	6.64802
14.15	6.62072
14.16	6.65328
14.17	6.63059
14.18	6.65164
14.19	6.62368
14.2	6.63585
14.21	6.63387
14.22	6.6671
14.23	6.69309
14.24	6.68881
14.25	6.63157
14.26	6.6092
14.27	6.56808
14.28	6.6194
14.29	6.63815
14.3	6.63585
14.31	6.64473
14.32	6.61841
14.33	6.54999
14.34	6.62302
14.35	6.6523
14.36	6.63519
14.37	6.65394
14.38	6.64769
14.39	6.59605
14.4	6.63256
14.41	6.61907
14.42	6.64835
14.43	6.58683
14.44	6.55986
14.45	6.62302
14.46	6.58552
14.47	6.55789
14.48	6.57598
14.49	6.58157
14.5	6.57269
14.51	6.57664
14.52	6.62302
14.53	6.60986
14.54	6.6444
14.55	6.63618
14.56	6.63651
14.57	6.59802
14.58	6.61907
14.59	6.61019
14.6	6.66085
14.61	6.58552
14.62	6.61611
14.63	6.61973
14.64	6.60328
14.65	6.58256
14.66	6.6217
14.67	6.6444
14.68	6.59045
14.69	6.57433
14.7	6.63223
14.71	6.61414
14.72	6.57466
14.73	6.5615
14.74	6.58058
14.75	6.58387
14.76	6.59736
14.77	6.6069
14.78	6.6648
14.79	6.66217
14.8	6.60986
14.81	6.60493
14.82	6.5967
14.83	6.55262
14.84	6.61151
14.85	6.63848
14.86	6.63091
14.87	6.62697
14.88	6.67631
14.89	6.61249
14.9	6.57433
14.91	6.62664
14.92	6.57664
14.93	6.59637
14.94	6.63947
14.95	6.64013
14.96	6.64407
14.97	6.58881
14.98	6.54506
14.99	6.60986
15	6.64572
15.01	6.62302
15.02	6.60328
15.03	6.61019
15.04	6.63947
15.05	6.57697
15.06	6.6194
15.07	6.60394
15.08	6.58683
15.09	6.57039
15.1	6.61249
15.11	6.57368
15.12	6.60032
15.13	6.60855
15.14	6.5944
15.15	6.57927
15.16	6.60756
15.17	6.60098
15.18	6.65789
15.19	6.58749
15.2	6.61052
15.21	6.59637
15.22	6.58716
15.23	6.64177
15.24	6.62401
15.25	6.58749
15.26	6.56874
15.27	6.54604
15.28	6.61151
15.29	6.5921
15.3	6.5967
15.31	6.6046
15.32	6.60361
15.33	6.60657
15.34	6.68684
15.35	6.61545
15.36	6.60197
15.37	6.6217
15.38	6.55328
15.39	6.58914
15.4	6.6444
15.41	6.65065
15.42	6.6444
15.43	6.62795
15.44	6.59407
15.45	6.61776
15.46	6.57795
15.47	6.56052
15.48	6.58453
15.49	6.60131
15.5	6.60164
15.51	6.54999
15.52	6.57433
15.53	6.57466
15.54	6.56414
15.55	6.62795
15.56	6.5842
15.57	6.54111
15.58	6.6421
15.59	6.64999
15.6	6.56907
15.61	6.60624
15.62	6.60427
15.63	6.57532
15.64	6.59637
15.65	6.59769
15.66	6.54407
15.67	6.54703
15.68	6.54012
15.69	6.53387
15.7	6.56479
15.71	6.56677
15.72	6.57433
15.73	6.61315
15.74	6.57335
15.75	6.56085
15.76	6.6148
15.77	6.57072
15.78	6.56381
15.79	6.54571
15.8	6.53881
15.81	6.55591
15.82	6.57466
15.83	6.61973
15.84	6.60361
15.85	6.58914
15.86	6.57203
15.87	6.58618
15.88	6.56414
15.89	6.6023
15.9	6.57039
15.91	6.54539
15.92	6.54374
15.93	6.53552
15.94	6.54868
15.95	6.54045
15.96	6.5319
15.97	6.54933
15.98	6.56578
15.99	6.55854
16	6.54078
16.01	6.58354
16.02	6.56414
16.03	6.54736
16.04	6.58058
16.05	6.57006
16.06	6.55789
16.07	6.57137
16.08	6.55986
16.09	6.52664
16.1	6.55887
16.11	6.58716
16.12	6.59802
16.13	6.52499
16.14	6.52664
16.15	6.56447
16.16	6.54407
16.17	6.55262
16.18	6.59572
16.19	6.54637
16.2	6.54341
16.21	6.53223
16.22	6.53453
16.23	6.63684
16.24	6.57993
16.25	6.52664
16.26	6.50854
16.27	6.50821
16.28	6.5796
16.29	6.54374
16.3	6.54308
16.31	6.53354
16.32	6.54703
16.33	6.56808
16.34	6.5842
16.35	6.55986
16.36	6.53124
16.37	6.54933
16.38	6.56414
16.39	6.58585
16.4	6.55756
16.41	6.57072
16.42	6.57072
16.43	6.52828
16.44	6.52828
16.45	6.52137
16.46	6.48223
16.47	6.57368
16.48	6.51742
16.49	6.50427
16.5	6.6148
16.51	6.54736
16.52	6.524
16.53	6.57466
16.54	6.53848
16.55	6.55723
16.56	6.5467
16.57	6.57335
16.58	6.55427
16.59	6.54637
16.6	6.54308
16.61	6.54539
16.62	6.56743
16.63	6.53025
16.64	6.59111
16.65	6.54802
16.66	6.55229
16.67	6.57104
16.68	6.53749
16.69	6.52861
16.7	6.52598
16.71	6.52499
16.72	6.55986
16.73	6.5921
16.74	6.55525
16.75	6.52302
16.76	6.55229
16.77	6.58585
16.78	6.52203
16.79	6.55361
16.8	6.57072
16.81	6.53848
16.82	6.53256
16.83	6.51973
16.84	6.57039
16.85	6.53585
16.86	6.56644
16.87	6.54144
16.88	6.55756
16.89	6.54868
16.9	6.56381
16.91	6.54243
16.92	6.57828
16.93	6.58618
16.94	6.57532
16.95	6.56249
16.96	6.56019
16.97	6.55854
16.98	6.53519
16.99	6.55986
17	6.54506
17.01	6.55953
17.02	6.58947
17.03	6.5842
17.04	6.55822
17.05	6.55361
17.06	6.58947
17.07	6.59045
17.08	6.56447
17.09	6.53091
17.1	6.56841
17.11	6.47038
17.12	6.48387
17.13	6.54045
17.14	6.55558
17.15	6.5296
17.16	6.53914
17.17	6.5171
17.18	6.50163
17.19	6.53453
17.2	6.54111
17.21	6.53453
17.22	6.56973
17.23	6.53683
17.24	6.50262
17.25	6.51907
17.26	6.51183
17.27	6.56315
17.28	6.50591
17.29	6.53979
17.3	6.51973
17.31	6.52071
17.32	6.5342
17.33	6.51019
17.34	6.54374
17.35	6.55854
17.36	6.53716
17.37	6.52894
17.38	6.54769
17.39	6.52762
17.4	6.55525
17.41	6.58223
17.42	6.50986
17.43	6.50624
17.44	6.54933
17.45	6.54012
17.46	6.51446
17.47	6.50295
17.48	6.52236
17.49	6.56282
17.5	6.56315
17.51	6.5365
17.52	6.51019
17.53	6.51578
17.54	6.51973
17.55	6.53223
17.56	6.53321
17.57	6.53256
17.58	6.5444
17.59	6.52269
17.6	6.49012
17.61	6.52203
17.62	6.6194
17.63	6.57598
17.64	6.51841
17.65	6.48881
17.66	6.51315
17.67	6.52664
17.68	6.5444
17.69	6.55558
17.7	6.49407
17.71	6.51479
17.72	6.56052
17.73	6.59999
17.74	6.524
17.75	6.5546
17.76	6.54473
17.77	6.55328
17.78	6.54769
17.79	6.52664
17.8	6.52006
17.81	6.56611
17.82	6.56512
17.83	6.56085
17.84	6.54045
17.85	6.52927
17.86	6.53157
17.87	6.50624
17.88	6.57302
17.89	6.57302
17.9	6.55229
17.91	6.56282
17.92	6.57697
17.93	6.5171
17.94	6.57598
17.95	6.53387
17.96	6.49341
17.97	6.53058
17.98	6.52499
17.99	6.51413
18	6.55756
18.01	6.49571
18.02	6.54637
18.03	6.48848
18.04	6.53025
18.05	6.56743
18.06	6.57697
18.07	6.52236
18.08	6.49867
18.09	6.44604
18.1	6.48979
18.11	6.52269
18.12	6.55164
18.13	6.55591
18.14	6.51874
18.15	6.53749
18.16	6.54966
18.17	6.51512
18.18	6.51742
18.19	6.55854
18.2	6.53716
18.21	6.50328
18.22	6.54802
18.23	6.5365
18.24	6.5421
18.25	6.51052
18.26	6.55295
18.27	6.52795
18.28	6.51085
18.29	6.55854
18.3	6.54374
18.31	6.48946
18.32	6.49538
18.33	6.50723
18.34	6.49308
18.35	6.51117
18.36	6.52466
18.37	6.51348
18.38	6.52006
18.39	6.51545
18.4	6.50361
18.41	6.53881
18.42	6.53289
18.43	6.54308
18.44	6.51742
18.45	6.56315
18.46	6.56052
18.47	6.49834
18.48	6.54868
18.49	6.5592
18.5	6.5365
18.51	6.52433
18.52	6.57236
18.53	6.53486
18.54	6.5615
18.55	6.53617
18.56	6.50854
18.57	6.53914
18.58	6.53815
18.59	6.51413
18.6	6.50196
18.61	6.52137
18.62	6.52894
18.63	6.54604
18.64	6.51874
18.65	6.55229
18.66	6.54144
18.67	6.524
18.68	6.50361
18.69	6.50032
18.7	6.55131
18.71	6.53453
18.72	6.4944
18.73	6.54374
18.74	6.50394
18.75	6.50262
18.76	6.5217
18.77	6.46808
18.78	6.52795
18.79	6.51973
18.8	6.48124
18.81	6.53519
18.82	6.56315
18.83	6.50624
18.84	6.5069
18.85	6.47927
18.86	6.53124
18.87	6.5444
18.88	6.54308
18.89	6.49834
18.9	6.50229
18.91	6.50163
18.92	6.48552
18.93	6.45755
18.94	6.49999
18.95	6.51742
18.96	6.54341
18.97	6.55196
18.98	6.51085
18.99	6.49867
19	6.474
19.01	6.56118
19.02	6.5115
19.03	6.50328
19.04	6.52006
19.05	6.48256
19.06	6.49538
19.07	6.49867
19.08	6.50098
19.09	6.50591
19.1	6.46775
19.11	6.52532
19.12	6.48552
19.13	6.49275
19.14	6.49374
19.15	6.44473
19.16	6.46084
19.17	6.4967
19.18	6.55065
19.19	6.50328
19.2	6.54637
19.21	6.49703
19.22	6.49966
19.23	6.50131
19.24	6.53617
19.25	6.48913
19.26	6.50887
19.27	6.50854
19.28	6.48815
19.29	6.47959
19.3	6.49703
19.31	6.48157
19.32	6.51282
19.33	6.48552
19.34	6.45229
19.35	6.45788
19.36	6.49999
19.37	6.50229
19.38	6.5694
19.39	6.52367
19.4	6.53749
19.41	6.51183
19.42	6.47828
19.43	6.49209
19.44	6.53914
19.45	6.47302
19.46	6.48552
19.47	6.54835
19.48	6.52992
19.49	6.53453
19.5	6.5046
19.51	6.46019
19.52	6.48091
19.53	6.4842
19.54	6.52302
19.55	6.48584
19.56	6.49769
19.57	6.49078
19.58	6.47696
19.59	6.47302
19.6	6.49571
19.61	6.45887
19.62	6.41742
19.63	6.48321
19.64	6.47137
19.65	6.47532
19.66	6.48913
19.67	6.44176
19.68	6.43222
19.69	6.50986
19.7	6.47499
19.71	6.51019
19.72	6.52762
19.73	6.5342
19.74	6.50394
19.75	6.49209
19.76	6.50788
19.77	6.57828
19.78	6.5365
19.79	6.4592
19.8	6.52861
19.81	6.50098
19.82	6.53387
19.83	6.5046
19.84	6.49078
19.85	6.48256
19.86	6.47367
19.87	6.50821
19.88	6.45723
19.89	6.46315
19.9	6.49999
19.91	6.47762
19.92	6.49177
19.93	6.50788
19.94	6.49473
19.95	6.51413
19.96	6.52696
19.97	6.52236
19.98	6.4944
19.99	6.47236
20	6.48321
20.01	6.50361
20.02	6.49012
20.03	6.4513
20.04	6.50525
20.05	6.51775
20.06	6.44736
20.07	6.48321
20.08	6.52367
20.09	6.50295
20.1	6.50723
20.11	6.49078
20.12	6.46742
20.13	6.43486
20.14	6.48683
20.15	6.47269
20.16	6.50262
20.17	6.51249
20.18	6.46512
20.19	6.48815
20.2	6.47433
20.21	6.45492
20.22	6.44473
20.23	6.49637
20.24	6.48288
20.25	6.44374
20.26	6.47565
20.27	6.46051
20.28	6.48058
20.29	6.52992
20.3	6.53321
20.31	6.48584
20.32	6.48354
20.33	6.48848
20.34	6.48552
20.35	6.48025
20.36	6.4842
20.37	6.53025
20.38	6.499
20.39	6.5092
20.4	6.47663
20.41	6.45163
20.42	6.53025
20.43	6.49275
20.44	6.48881
20.45	6.46677
20.46	6.52302
20.47	6.49177
20.48	6.45953
20.49	6.44209
20.5	6.4944
20.51	6.47795
20.52	6.49407
20.53	6.4944
20.54	6.48223
20.55	6.4865
20.56	6.48716
20.57	6.48552
20.58	6.47861
20.59	6.50131
20.6	6.44933
20.61	6.42729
20.62	6.44538
20.63	6.48881
20.64	6.52565
20.65	6.53782
20.66	6.50262
20.67	6.51775
20.68	6.49473
20.69	6.4694
20.7	6.53453
20.71	6.45755
20.72	6.48881
20.73	6.48519
20.74	6.48881
20.75	6.48946
20.76	6.45032
20.77	6.46019
20.78	6.52894
20.79	6.44703
20.8	6.48946
20.81	6.4717
20.82	6.46216
20.83	6.50492
20.84	6.46644
20.85	6.49111
20.86	6.50525
20.87	6.47367
20.88	6.45723
20.89	6.45098
20.9	6.4694
20.91	6.47828
20.92	6.42597
20.93	6.46611
20.94	6.45854
20.95	6.42203
20.96	6.45723
20.97	6.45986
20.98	6.46512
20.99	6.48223
21	6.49308
21.01	6.4513
21.02	6.46578
21.03	6.44242
21.04	6.44834
21.05	6.4967
21.06	6.4763
21.07	6.52499
21.08	6.55196
21.09	6.50361
21.1	6.44111
21.11	6.46446
21.12	6.44867
21.13	6.46019
21.14	6.44341
21.15	6.4319
21.16	6.44867
21.17	6.44176
21.18	6.48091
21.19	6.46874
21.2	6.43321
21.21	6.46479
21.22	6.50492
21.23	6.48354
21.24	6.4694
21.25	6.48519
21.26	6.48058
21.27	6.46775
21.28	6.45361
21.29	6.46578
21.3	6.47104
21.31	6.49341
21.32	6.47499
21.33	6.45295
21.34	6.45755
21.35	6.46742
21.36	6.42597
21.37	6.44801
21.38	6.50591
21.39	6.43946
21.4	6.45065
21.41	6.46677
21.42	6.44473
21.43	6.46545
21.44	6.4638
21.45	6.4319
21.46	6.46545
21.47	6.43683
21.48	6.51052
21.49	6.47367
21.5	6.4444
21.51	6.47795
21.52	6.46479
21.53	6.48091
21.54	6.44966
21.55	6.44176
21.56	6.51216
21.57	6.52729
21.58	6.52335
21.59	6.5546
21.6	6.46183
21.61	6.46479
21.62	6.48519
21.63	6.48584
21.64	6.47861
21.65	6.45755
21.66	6.45953
21.67	6.48881
21.68	6.47861
21.69	6.42926
21.7	6.45295
21.71	6.48552
21.72	6.44242
21.73	6.46019
21.74	6.44604
21.75	6.43288
21.76	6.4717
21.77	6.4365
21.78	6.47334
21.79	6.50328
21.8	6.48749
21.81	6.48913
21.82	6.49571
21.83	6.49341
21.84	6.44999
21.85	6.44933
21.86	6.41018
21.87	6.42729
21.88	6.45558
21.89	6.49111
21.9	6.41676
21.91	6.47959
21.92	6.48946
21.93	6.48683
21.94	6.4842
21.95	6.45821
21.96	6.44801
21.97	6.45098
21.98	6.47828
21.99	6.49538
22	6.4763
22.01	6.42565
22.02	6.42236
22.03	6.49111
22.04	6.48683
22.05	6.499
22.06	6.46019
22.07	6.50328
22.08	6.50328
22.09	6.46611
22.1	6.45163
22.11	6.45295
22.12	6.48913
22.13	6.40525
22.14	6.45394
22.15	6.4615
22.16	6.4513
22.17	6.51578
22.18	6.49275
22.19	6.45262
22.2	6.44341
22.21	6.45723
22.22	6.42367
22.23	6.42038
22.24	6.44736
22.25	6.48223
22.26	6.40163
22.27	6.45295
22.28	6.4615
22.29	6.53256
22.3	6.49308
22.31	6.42926
22.32	6.44571
22.33	6.47104
22.34	6.4638
22.35	6.4638
22.36	6.46808
22.37	6.43058
22.38	6.44209
22.39	6.44999
22.4	6.4865
22.41	6.49078
22.42	6.45229
22.43	6.46775
22.44	6.50295
22.45	6.47302
22.46	6.4513
22.47	6.49999
22.48	6.46578
22.49	6.44736
22.5	6.47203
22.51	6.49078
22.52	6.48058
22.53	6.44703
22.54	6.38255
22.55	6.42828
22.56	6.43486
22.57	6.45558
22.58	6.45755
22.59	6.42268
22.6	6.43091
22.61	6.50821
22.62	6.44473
22.63	6.44769
22.64	6.48815
22.65	6.46413
22.66	6.48157
22.67	6.45953
22.68	6.42992
22.69	6.48913
22.7	6.52302
22.71	6.4592
22.72	6.42894
22.73	6.38091
22.74	6.43519
22.75	6.48617
22.76	6.5046
22.77	6.4944
22.78	6.4865
22.79	6.47663
22.8	6.45065
22.81	6.47367
22.82	6.45591
22.83	6.46775
22.84	6.43157
22.85	6.49703
22.86	6.49177
22.87	6.43486
22.88	6.42236
22.89	6.45426
22.9	6.44571
22.91	6.47005
22.92	6.45492
22.93	6.5046
22.94	6.47433
22.95	6.42104
22.96	6.42367
22.97	6.44308
22.98	6.45788
22.99	6.45163
23	6.46611
23.01	6.46973
23.02	6.4467
23.03	6.47466
23.04	6.46216
23.05	6.48519
23.06	6.48617
23.07	6.50558
23.08	6.46315
23.09	6.44505
23.1	6.48124
23.11	6.48716
23.12	6.50492
23.13	6.47203
23.14	6.46249
23.15	6.47762
23.16	6.47762
23.17	6.4069
23.18	6.45229
23.19	6.4592
23.2	6.43617
23.21	6.4717
23.22	6.5115
23.23	6.45591
23.24	6.42926
23.25	6.45657
23.26	6.47071
23.27	6.5046
23.28	6.4592
23.29	6.44999
23.3	6.41808
23.31	6.47927
23.32	6.4319
23.33	6.4763
23.34	6.4763
23.35	6.46742
23.36	6.43025
23.37	6.44703
23.38	6.42104
23.39	6.50131
23.4	6.41545
23.41	6.44209
23.42	6.48683
23.43	6.45459
23.44	6.39999
23.45	6.42861
23.46	6.43617
23.47	6.41315
23.48	6.45657
23.49	6.47959
23.5	6.4569
23.51	6.46709
23.52	6.44308
23.53	6.45196
23.54	6.4388
23.55	6.4115
23.56	6.45328
23.57	6.4638
23.58	6.47433
23.59	6.46874
23.6	6.46907
23.61	6.45328
23.62	6.47433
23.63	6.41907
23.64	6.41117
23.65	6.43486
23.66	6.46677
23.67	6.46315
23.68	6.46282
23.69	6.41907
23.7	6.48716
23.71	6.47532
23.72	6.4694
23.73	6.46611
23.74	6.43091
23.75	6.42268
23.76	6.39999
23.77	6.40525
23.78	6.50328
23.79	6.49506
23.8	6.50788
23.81	6.44111
23.82	6.46019
23.83	6.47104
23.84	6.44242
23.85	6.47828
23.86	6.43091
23.87	6.4365
23.88	6.4319
23.89	6.47565
23.9	6.46117
23.91	6.45196
23.92	6.47104
23.93	6.40657
23.94	6.43058
23.95	6.45854
23.96	6.44209
23.97	6.42334
23.98	6.47861
23.99	6.43255
24	6.4092
24.01	6.45426
24.02	6.43255
24.03	6.46216
24.04	6.41018
24.05	6.40393
24.06	6.40262
24.07	6.41512
24.08	6.46874
24.09	6.44703
24.1	6.42367
24.11	6.41874
24.12	6.40986
24.13	6.42992
24.14	6.47236
24.15	6.48617
24.16	6.44933
24.17	6.42367
24.18	6.49078
24.19	6.50361
24.2	6.43979
24.21	6.40525
24.22	6.45032
24.23	6.47959
24.24	6.4763
24.25	6.44604
24.26	6.48354
24.27	6.44571
24.28	6.40426
24.29	6.42729
24.3	6.37597
24.31	6.42433
24.32	6.39867
24.33	6.44769
24.34	6.45196
24.35	6.42499
24.36	6.48913
24.37	6.43617
24.38	6.44012
24.39	6.4717
24.4	6.4615
24.41	6.42466
24.42	6.42104
24.43	6.43584
24.44	6.46742
24.45	6.44012
24.46	6.46677
24.47	6.45558
24.48	6.40953
24.49	6.39143
24.5	6.43782
24.51	6.45723
24.52	6.47992
24.53	6.48387
24.54	6.45459
24.55	6.44045
24.56	6.41775
24.57	6.42532
24.58	6.43157
24.59	6.49045
24.6	6.47236
24.61	6.45328
24.62	6.42696
24.63	6.44308
24.64	6.43847
24.65	6.44736
24.66	6.42696
24.67	6.39242
24.68	6.4444
24.69	6.46084
24.7	6.39308
24.71	6.4467
24.72	6.36742
24.73	6.40262
24.74	6.49144
24.75	6.47038
24.76	6.42663
24.77	6.4842
24.78	6.44407
24.79	6.45196
24.8	6.44341
24.81	6.40591
24.82	6.45032
24.83	6.47565
24.84	6.43124
24.85	6.40097
24.86	6.46249
24.87	6.48091
24.88	6.43716
24.89	6.45591
24.9	6.474
24.91	6.3865
24.92	6.45032
24.93	6.46051
24.94	6.44933
24.95	6.46611
24.96	6.52302
24.97	6.45426
24.98	6.45163
24.99	6.44111
25	6.42762
25.01	6.47762
25.02	6.44571
25.03	6.41282
25.04	6.4615
25.05	6.41709
25.06	6.45953
25.07	6.4342
25.08	6.38222
25.09	6.48288
25.1	6.46051
25.11	6.42367
25.12	6.41479
25.13	6.41611
25.14	6.43453
25.15	6.3967
25.16	6.41841
25.17	6.44933
25.18	6.40393
25.19	6.44966
25.2	6.46348
25.21	6.44242
25.22	6.44703
25.23	6.41972
25.24	6.45887
25.25	6.45821
25.26	6.41907
25.27	6.42861
25.28	6.44242
25.29	6.39242
25.3	6.44637
25.31	6.42729
25.32	6.46117
25.33	6.41676
25.34	6.45591
25.35	6.46611
25.36	6.42894
25.37	6.41578
25.38	6.44538
25.39	6.4467
25.4	6.44275
25.41	6.47038
25.42	6.45755
25.43	6.48223
25.44	6.45986
25.45	6.41446
25.46	6.43288
25.47	6.424
25.48	6.44473
25.49	6.44571
25.5	6.42795
25.51	6.41315
25.52	6.38157
25.53	6.38749
25.54	6.45196
25.55	6.45163
25.56	6.46808
25.57	6.40624
25.58	6.43486
25.59	6.46907
25.6	6.47532
25.61	6.40953
25.62	6.42137
25.63	6.39801
25.64	6.44144
25.65	6.44308
25.66	6.42137
25.67	6.44999
25.68	6.44703
25.69	6.42137
25.7	6.42104
25.71	6.41347
25.72	6.4694
25.73	6.46775
25.74	6.41512
25.75	6.41117
25.76	6.4138
25.77	6.41611
25.78	6.41413
25.79	6.47959
25.8	6.43486
25.81	6.39736
25.82	6.41446
25.83	6.424
25.84	6.45755
25.85	6.45525
25.86	6.40788
25.87	6.41808
25.88	6.43584
25.89	6.41216
25.9	6.43617
25.91	6.4638
25.92	6.47894
25.93	6.4388
25.94	6.40361
25.95	6.38946
25.96	6.38485
25.97	6.3967
25.98	6.47203
25.99	6.45854
26	6.41512
26.01	6.41907
26.02	6.41742
26.03	6.35656
26.04	6.41446
26.05	6.46709
26.06	6.43782
26.07	6.4194
26.08	6.46644
26.09	6.44374
26.1	6.43157
26.11	6.42005
26.12	6.44407
26.13	6.42532
26.14	6.50427
26.15	6.38288
26.16	6.38387
26.17	6.40426
26.18	6.49933
26.19	6.40525
26.2	6.43716
26.21	6.41446
26.22	6.44637
26.23	6.47137
26.24	6.46315
26.25	6.42104
26.26	6.40755
26.27	6.44374
26.28	6.45098
26.29	6.48124
26.3	6.47203
26.31	6.47466
26.32	6.44571
26.33	6.43551
26.34	6.42334
26.35	6.44209
26.36	6.45229
26.37	6.43519
26.38	6.48256
26.39	6.42137
26.4	6.40887
26.41	6.3967
26.42	6.3888
26.43	6.44538
26.44	6.46183
26.45	6.43058
26.46	6.44834
26.47	6.44012
26.48	6.36907
26.49	6.40229
26.5	6.37367
26.51	6.42532
26.52	6.42203
26.53	6.43058
26.54	6.44308
26.55	6.44374
26.56	6.41413
26.57	6.43255
26.58	6.44505
26.59	6.42499
26.6	6.40459
26.61	6.45394
26.62	6.44769
26.63	6.39834
26.64	6.449
26.65	6.44078
26.66	6.40821
26.67	6.40426
26.68	6.39966
26.69	6.41676
26.7	6.45821
26.71	6.44538
26.72	6.46051
26.73	6.44209
26.74	6.44308
26.75	6.40953
26.76	6.37696
26.77	6.41808
26.78	6.39538
26.79	6.37959
26.8	6.37762
26.81	6.45032
26.82	6.49144
26.83	6.44045
26.84	6.45328
26.85	6.46578
26.86	6.39143
26.87	6.41446
26.88	6.399
26.89	6.43683
26.9	6.46611
26.91	6.44538
26.92	6.44078
26.93	6.4444
26.94	6.4115
26.95	6.43288
26.96	6.46315
26.97	6.47828
26.98	6.40032
26.99	6.45953
27	6.47992
27.01	6.45492
27.02	6.48124
27.03	6.50887
27.04	6.5092
27.05	6.52137
27.06	6.48552
27.07	6.44144
27.08	6.44209
27.09	6.47367
27.1	6.42532
27.11	6.4513
27.12	6.44473
27.13	6.48223
27.14	6.45032
27.15	6.43453
27.16	6.44571
27.17	6.42499
27.18	6.44275
27.19	6.4967
27.2	6.48157
27.21	6.45098
27.22	6.50163
27.23	6.45492
27.24	6.42301
27.25	6.43617
27.26	6.424
27.27	6.43354
27.28	6.44045
27.29	6.39933
27.3	6.44308
27.31	6.46479
27.32	6.46446
27.33	6.46775
27.34	6.38288
27.35	6.41249
27.36	6.44736
27.37	6.36841
27.38	6.40854
27.39	6.43091
27.4	6.43946
27.41	6.42959
27.42	6.45723
27.43	6.45328
27.44	6.4194
27.45	6.47894
27.46	6.46183
27.47	6.46117
27.48	6.40393
27.49	6.41874
27.5	6.44571
27.51	6.4763
27.52	6.44867
27.53	6.45394
27.54	6.43584
27.55	6.42663
27.56	6.38847
27.57	6.43815
27.58	6.4138
27.59	6.38354
27.6	6.42565
27.61	6.43058
27.62	6.40525
27.63	6.41972
27.64	6.41775
27.65	6.39966
27.66	6.43255
27.67	6.42532
27.68	6.39834
27.69	6.38288
27.7	6.39012
27.71	6.46249
27.72	6.45854
27.73	6.48387
27.74	6.46019
27.75	6.42367
27.76	6.43716
27.77	6.42861
27.78	6.45492
27.79	6.45953
27.8	6.44473
27.81	6.44407
27.82	6.3865
27.83	6.44176
27.84	6.4842
27.85	6.47466
27.86	6.45657
27.87	6.44505
27.88	6.41545
27.89	6.44078
27.9	6.42926
27.91	6.4194
27.92	6.43354
27.93	6.42992
27.94	6.45591
27.95	6.48321
27.96	6.46841
27.97	6.4342
27.98	6.4138
27.99	6.39966
28	6.42367
28.01	6.42926
28.02	6.40788
28.03	6.43815
28.04	6.43551
28.05	6.41282
28.06	6.44801
28.07	6.44209
28.08	6.41282
28.09	6.39604
28.1	6.42729
28.11	6.47696
28.12	6.43584
28.13	6.4069
28.14	6.41315
28.15	6.4263
28.16	6.40657
28.17	6.43058
28.18	6.44703
28.19	6.40525
28.2	6.42663
28.21	6.41183
28.22	6.42038
28.23	6.4138
28.24	6.43354
28.25	6.41972
28.26	6.39472
28.27	6.38913
28.28	6.46775
28.29	6.43387
28.3	6.44505
28.31	6.42137
28.32	6.46841
28.33	6.41742
28.34	6.43519
28.35	6.45953
28.36	6.46907
28.37	6.44407
28.38	6.42301
28.39	6.42104
28.4	6.44374
28.41	6.40624
28.42	6.42466
28.43	6.38847
28.44	6.40525
28.45	6.37663
28.46	6.44308
28.47	6.45887
28.48	6.38716
28.49	6.40262
28.5	6.42038
28.51	6.43716
28.52	6.40558
28.53	6.41084
28.54	6.40887
28.55	6.40097
28.56	6.46479
28.57	6.45328
28.58	6.4319
28.59	6.45591
28.6	6.45426
28.61	6.44045
28.62	6.44012
28.63	6.42663
28.64	6.45196
28.65	6.44473
28.66	6.41315
28.67	6.40854
28.68	6.45788
28.69	6.39999
28.7	6.4092
28.71	6.40393
28.72	6.36051
28.73	6.42828
28.74	6.43584
28.75	6.43091
28.76	6.43815
28.77	6.43716
28.78	6.42795
28.79	6.46973
28.8	6.46742
28.81	6.4194
28.82	6.42203
28.83	6.44834
28.84	6.41347
28.85	6.41545
28.86	6.44571
28.87	6.43486
28.88	6.42433
28.89	6.4342
28.9	6.45492
28.91	6.44341
28.92	6.42203
28.93	6.41643
28.94	6.39736
28.95	6.40887
28.96	6.40328
28.97	6.43255
28.98	6.4115
28.99	6.44505
29	6.43551
29.01	6.41018
29.02	6.43683
29.03	6.40525
29.04	6.43847
29.05	6.42861
29.06	6.4194
29.07	6.43716
29.08	6.42565
29.09	6.45426
29.1	6.43913
29.11	6.42894
29.12	6.38946
29.13	6.37597
29.14	6.43519
29.15	6.41907
29.16	6.40558
29.17	6.39801
29.18	6.3842
29.19	6.45986
29.2	6.44078
29.21	6.41446
29.22	6.41084
29.23	6.44242
29.24	6.42005
29.25	6.4467
29.26	6.44374
29.27	6.41413
29.28	6.38913
29.29	6.42104
29.3	6.48617
29.31	6.42729
29.32	6.42005
29.33	6.46512
29.34	6.399
29.35	6.43979
29.36	6.47565
29.37	6.41972
29.38	6.39078
29.39	6.43782
29.4	6.45558
29.41	6.40722
29.42	6.43288
29.43	6.41347
29.44	6.424
29.45	6.47269
29.46	6.40722
29.47	6.40887
29.48	6.42861
29.49	6.46117
29.5	6.41512
29.51	6.42005
29.52	6.4569
29.53	6.43683
29.54	6.42367
29.55	6.39703
29.56	6.3717
29.57	6.41084
29.58	6.41643
29.59	6.42565
29.6	6.44505
29.61	6.4217
29.62	6.46183
29.63	6.38913
29.64	6.43255
29.65	6.40393
29.66	6.46808
29.67	6.46051
29.68	6.42005
29.69	6.42137
29.7	6.36874
29.71	6.40591
29.72	6.39604
29.73	6.44999
29.74	6.45196
29.75	6.46808
29.76	6.43946
29.77	6.45492
29.78	6.4444
29.79	6.4217
29.8	6.48453
29.81	6.46117
29.82	6.38847
29.83	6.40953
29.84	6.44999
29.85	6.4365
29.86	6.44769
29.87	6.46479
29.88	6.44012
29.89	6.42367
29.9	6.44045
29.91	6.41775
29.92	6.4115
29.93	6.38617
29.94	6.44834
29.95	6.46413
29.96	6.4342
29.97	6.42104
29.98	6.4138
29.99	6.47696
30	6.4319
30.01	6.39407
30.02	6.4444
30.03	6.39604
30.04	6.4717
30.05	6.46084
30.06	6.42597
30.07	6.40624
30.08	6.40229
30.09	6.44769
30.1	6.41578
30.11	6.41972
30.12	6.37597
30.13	6.40064
30.14	6.43321
30.15	6.41972
30.16	6.39045
30.17	6.41315
30.18	6.41841
30.19	6.39045
30.2	6.42301
30.21	6.45295
30.22	6.40361
30.23	6.38288
30.24	6.41643
30.25	6.40459
30.26	6.4444
30.27	6.42729
30.28	6.39341
30.29	6.40262
30.3	6.41742
30.31	6.4592
30.32	6.44769
30.33	6.4138
30.34	6.40492
30.35	6.42828
30.36	6.39637
30.37	6.41479
30.38	6.40492
30.39	6.41446
30.4	6.42926
30.41	6.46973
30.42	6.41907
30.43	6.40525
30.44	6.43519
30.45	6.44834
30.46	6.47992
30.47	6.45196
30.48	6.38584
30.49	6.42992
30.5	6.3638
30.51	6.39111
30.52	6.42795
30.53	6.39374
30.54	6.41742
30.55	6.45032
30.56	6.41315
30.57	6.36578
30.58	6.39374
30.59	6.41051
30.6	6.3763
30.61	6.44341
30.62	6.38683
30.63	6.40887
30.64	6.41874
30.65	6.43551
30.66	6.44144
30.67	6.42499
30.68	6.38716
30.69	6.43979
30.7	6.44473
30.71	6.42433
30.72	6.39999
30.73	6.42499
30.74	6.41808
30.75	6.43255
30.76	6.40722
30.77	6.43519
30.78	6.46644
30.79	6.39209
30.8	6.41347
30.81	6.42894
30.82	6.40262
30.83	6.37499
30.84	6.3536
30.85	6.33485
30.86	6.38782
30.87	6.4217
30.88	6.40295
30.89	6.40591
30.9	6.43782
30.91	6.42828
30.92	6.449
30.93	6.39834
30.94	6.41216
30.95	6.44012
30.96	6.39111
30.97	6.3615
30.98	6.38814
30.99	6.42433
31	6.40393
31.01	6.4069
31.02	6.43584
31.03	6.42334
31.04	6.37893
31.05	6.43222
31.06	6.39834
31.07	6.43683
31.08	6.42696
31.09	6.39111
31.1	6.40097
31.11	6.39966
31.12	6.36413
31.13	6.39472
31.14	6.41578
31.15	6.40328
31.16	6.43519
31.17	6.38584
31.18	6.43157
31.19	6.46512
31.2	6.40262
31.21	6.37071
31.22	6.44012
31.23	6.47005
31.24	6.45196
31.25	6.43946
31.26	6.36413
31.27	6.40064
31.28	6.42499
31.29	6.45163
31.3	6.45854
31.31	6.40953
31.32	6.40328
31.33	6.38749
31.34	6.39604
31.35	6.45098
31.36	6.38387
31.37	6.38255
31.38	6.37992
31.39	6.41676
31.4	6.42433
31.41	6.41545
31.42	6.40262
31.43	6.41216
31.44	6.40755
31.45	6.41216
31.46	6.41841
31.47	6.43782
31.48	6.44144
31.49	6.39439
31.5	6.41545
31.51	6.42499
31.52	6.43486
31.53	6.38222
31.54	6.44999
31.55	6.38058
31.56	6.36939
31.57	6.39078
31.58	6.41413
31.59	6.40953
31.6	6.40393
31.61	6.47927
31.62	6.43058
31.63	6.43387
31.64	6.40196
31.65	6.40624
31.66	6.43321
31.67	6.45459
31.68	6.4467
31.69	6.4263
31.7	6.39078
31.71	6.36841
31.72	6.42762
31.73	6.43617
31.74	6.44308
31.75	6.42236
31.76	6.46545
31.77	6.46545
31.78	6.41611
31.79	6.40788
31.8	6.44144
31.81	6.44505
31.82	6.40788
31.83	6.43749
31.84	6.4194
31.85	6.40426
31.86	6.41479
31.87	6.38288
31.88	6.44176
31.89	6.36117
31.9	6.3592
31.91	6.40986
31.92	6.40854
31.93	6.38782
31.94	6.4467
31.95	6.44176
31.96	6.42005
31.97	6.41972
31.98	6.43847
31.99	6.41282
32	6.39999
32.01	6.43979
32.02	6.40097
32.03	6.39012
32.04	6.43058
32.05	6.39078
32.06	6.38321
32.07	6.40722
32.08	6.41413
32.09	6.41117
32.1	6.3865
32.11	6.38222
32.12	6.38584
32.13	6.45295
32.14	6.41347
32.15	6.39768
32.16	6.42861
32.17	6.44111
32.18	6.43288
32.19	6.41972
32.2	6.45657
32.21	6.45098
32.22	6.43683
32.23	6.3888
32.24	6.39439
32.25	6.43255
32.26	6.40032
32.27	6.38321
32.28	6.4694
32.29	6.37959
32.3	6.40986
32.31	6.45723
32.32	6.44242
32.33	6.42334
32.34	6.39143
32.35	6.43486
32.36	6.41084
32.37	6.38189
32.38	6.40887
32.39	6.4319
32.4	6.42499
32.41	6.3717
32.42	6.42696
32.43	6.42071
32.44	6.3786
32.45	6.39801
32.46	6.40328
32.47	6.43124
32.48	6.45755
32.49	6.42268
32.5	6.39374
32.51	6.42367
32.52	6.45525
32.53	6.44078
32.54	6.41315
32.55	6.43815
32.56	6.42038
32.57	6.424
32.58	6.42828
32.59	6.38321
32.6	6.41051
32.61	6.45065
32.62	6.37729
32.63	6.40953
32.64	6.42992
32.65	6.38354
32.66	6.43222
32.67	6.42236
32.68	6.39505
32.69	6.38288
32.7	6.36643
32.71	6.45492
32.72	6.38124
32.73	6.41643
32.74	6.47302
32.75	6.43321
32.76	6.43387
32.77	6.37597
32.78	6.42071
32.79	6.43847
32.8	6.4092
32.81	6.36281
32.82	6.40361
32.83	6.3967
32.84	6.43815
32.85	6.44966
32.86	6.41282
32.87	6.4263
32.88	6.38946
32.89	6.40097
32.9	6.38255
32.91	6.43091
32.92	6.39209
32.93	6.40262
32.94	6.36676
32.95	6.41084
32.96	6.39472
32.97	6.36347
32.98	6.41051
32.99	6.39834
33	6.40262
33.01	6.40887
33.02	6.40558
33.03	6.41808
33.04	6.42433
33.05	6.43288
33.06	6.37663
33.07	6.36249
33.08	6.43617
33.09	6.4592
33.1	6.42663
33.11	6.39176
33.12	6.39966
33.13	6.41413
33.14	6.42203
33.15	6.44933
33.16	6.47071
33.17	6.43091
33.18	6.42565
33.19	6.424
33.2	6.42301
33.21	6.37992
33.22	6.38518
33.23	6.43124
33.24	6.40097
33.25	6.43354
33.26	6.43157
33.27	6.43321
33.28	6.43387
33.29	6.42367
33.3	6.37071
33.31	6.39078
33.32	6.44374
33.33	6.39439
33.34	6.4013
33.35	6.45229
33.36	6.42828
33.37	6.42301
33.38	6.37696
33.39	6.4013
33.4	6.3967
33.41	6.42795
33.42	6.44604
33.43	6.45065
33.44	6.37992
33.45	6.41084
33.46	6.39472
33.47	6.41643
33.48	6.40887
33.49	6.40361
33.5	6.41446
33.51	6.37433
33.52	6.39308
33.53	6.40591
33.54	6.42268
33.55	6.41742
33.56	6.3967
33.57	6.37762
33.58	6.36709
33.59	6.40328
33.6	6.40755
33.61	6.39308
33.62	6.4092
33.63	6.42959
33.64	6.43946
33.65	6.39966
33.66	6.42466
33.67	6.41808
33.68	6.38321
33.69	6.3661
33.7	6.39012
33.71	6.41183
33.72	6.46249
33.73	6.45788
33.74	6.41347
33.75	6.43321
33.76	6.39078
33.77	6.42532
33.78	6.42565
33.79	6.44834
33.8	6.41282
33.81	6.45328
33.82	6.50492
33.83	6.46545
33.84	6.39604
33.85	6.39472
33.86	6.41249
33.87	6.41084
33.88	6.41413
33.89	6.4115
33.9	6.40657
33.91	6.41808
33.92	6.41413
33.93	6.41972
33.94	6.45065
33.95	6.42696
33.96	6.48288
33.97	6.41611
33.98	6.39768
33.99	6.41018
34	6.43321
34.01	6.47236
34.02	6.45459
34.03	6.41972
34.04	6.41611
34.05	6.39801
34.06	6.374
34.07	6.4092
34.08	6.39604
34.09	6.3717
34.1	6.42795
34.11	6.40426
34.12	6.39012
34.13	6.42334
34.14	6.36709
34.15	6.39604
34.16	6.42005
34.17	6.46578
34.18	6.45723
34.19	6.41841
34.2	6.44703
34.21	6.3786
34.22	6.36216
34.23	6.35722
34.24	6.33452
34.25	6.36742
34.26	6.41676
34.27	6.45525
34.28	6.40986
34.29	6.37301
34.3	6.34275
34.31	6.38617
34.32	6.4092
34.33	6.37926
34.34	6.41907
34.35	6.4513
34.36	6.40722
34.37	6.41775
34.38	6.38913
34.39	6.33058
34.4	6.4115
34.41	6.41545
34.42	6.41051
34.43	6.43025
34.44	6.42005
34.45	6.41216
34.46	6.38584
34.47	6.47894
34.48	6.40657
34.49	6.42762
34.5	6.41578
34.51	6.37071
34.52	6.36907
34.53	6.39834
34.54	6.41216
34.55	6.38551
34.56	6.40459
34.57	6.4467
34.58	6.40163
34.59	6.45558
34.6	6.43387
34.61	6.43617
34.62	6.424
34.63	6.42038
34.64	6.42466
34.65	6.35788
34.66	6.36709
34.67	6.37729
34.68	6.35163
34.69	6.43519
34.7	6.43749
34.71	6.39999
34.72	6.42038
34.73	6.45328
34.74	6.38683
34.75	6.41775
34.76	6.37729
34.77	6.42367
34.78	6.45262
34.79	6.4319
34.8	6.39341
34.81	6.36742
34.82	6.40854
34.83	6.48552
34.84	6.45196
34.85	6.42367
34.86	6.36479
34.87	6.37696
34.88	6.38913
34.89	6.39999
34.9	6.41216
34.91	6.3467
34.92	6.41315
34.93	6.4342
34.94	6.36281
34.95	6.43222
34.96	6.45394
34.97	6.41709
34.98	6.39374
34.99	6.42499
35	6.4115
35.01	6.38749
35.02	6.40887
35.03	6.41676
35.04	6.44999
35.05	6.41347
35.06	6.40854
35.07	6.39439
35.08	6.38157
35.09	6.37729
35.1	6.39111
35.11	6.40295
35.12	6.38683
35.13	6.41347
35.14	6.47696
35.15	6.38321
35.16	6.42038
35.17	6.45492
35.18	6.4263
35.19	6.35788
35.2	6.39045
35.21	6.39768
35.22	6.41611
35.23	6.41578
35.24	6.45328
35.25	6.45492
35.26	6.42597
35.27	6.38124
35.28	6.38485
35.29	6.3717
35.3	6.38716
35.31	6.35393
35.32	6.43453
35.33	6.42894
35.34	6.40624
35.35	6.38617
35.36	6.39999
35.37	6.39308
35.38	6.39045
35.39	6.41216
35.4	6.36512
35.41	6.39999
35.42	6.39867
35.43	6.37038
35.44	6.44538
35.45	6.40262
35.46	6.43584
35.47	6.43979
35.48	6.41841
35.49	6.40328
35.5	6.40393
35.51	6.43354
35.52	6.39736
35.53	6.41249
35.54	6.37959
35.55	6.35722
35.56	6.37433
35.57	6.37301
35.58	6.41249
35.59	6.37466
35.6	6.36709
35.61	6.38979
35.62	6.3536
35.63	6.3967
35.64	6.3342
35.65	6.36249
35.66	6.38946
35.67	6.36183
35.68	6.41216
35.69	6.44111
35.7	6.43551
35.71	6.41216
35.72	6.37038
35.73	6.40262
35.74	6.44933
35.75	6.42203
35.76	6.38518
35.77	6.40064
35.78	6.41775
35.79	6.4217
35.8	6.40525
35.81	6.39045
35.82	6.37203
35.83	6.41347
35.84	6.44999
35.85	6.38782
35.86	6.38453
35.87	6.39472
35.88	6.43749
35.89	6.44308
35.9	6.4513
35.91	6.4115
35.92	6.39571
35.93	6.40229
35.94	6.47071
35.95	6.43584
35.96	6.40887
35.97	6.42597
35.98	6.42663
35.99	6.46183
36	6.41183
36.01	6.47729
36.02	6.449
36.03	6.42532
36.04	6.40821
36.05	6.41084
36.06	6.44834
36.07	6.42466
36.08	6.38485
36.09	6.38189
36.1	6.46249
36.11	6.4615
36.12	6.37959
36.13	6.42203
36.14	6.46709
36.15	6.43124
36.16	6.40361
36.17	6.39176
36.18	6.4069
36.19	6.39999
36.2	6.40986
36.21	6.44209
36.22	6.46315
36.23	6.41643
36.24	6.37959
36.25	6.42038
36.26	6.43617
36.27	6.41117
36.28	6.3888
36.29	6.40393
36.3	6.35953
36.31	6.42203
36.32	6.46775
36.33	6.41676
36.34	6.41479
36.35	6.40328
36.36	6.39242
36.37	6.43255
36.38	6.42367
36.39	6.38979
36.4	6.3967
36.41	6.40986
36.42	6.42268
36.43	6.43091
36.44	6.41742
36.45	6.42894
36.46	6.45624
36.47	6.424
36.48	6.37597
36.49	6.36676
36.5	6.40229
36.51	6.47071
36.52	6.43749
36.53	6.34966
36.54	6.36479
36.55	6.39374
36.56	6.38485
36.57	6.39111
36.58	6.39275
36.59	6.39571
36.6	6.4013
36.61	6.42696
36.62	6.39078
36.63	6.4319
36.64	6.42926
36.65	6.38617
36.66	6.39637
36.67	6.39801
36.68	6.4444
36.69	6.43058
36.7	6.41183
36.71	6.43716
36.72	6.40953
36.73	6.41808
36.74	6.42334
36.75	6.39341
36.76	6.4513
36.77	6.38979
36.78	6.39143
36.79	6.3638
36.8	6.36051
36.81	6.42005
36.82	6.35459
36.83	6.34275
36.84	6.3786
36.85	6.42663
36.86	6.44341
36.87	6.42005
36.88	6.41018
36.89	6.41018
36.9	6.39341
36.91	6.39933
36.92	6.45361
36.93	6.42565
36.94	6.39341
36.95	6.41315
36.96	6.41051
36.97	6.3592
36.98	6.38617
36.99	6.40887
37	6.41347
37.01	6.40788
37.02	6.43486
37.03	6.41545
37.04	6.47663
37.05	6.40755
37.06	6.39472
37.07	6.41315
37.08	6.3615
37.09	6.41051
37.1	6.41874
37.11	6.43157
37.12	6.44012
37.13	6.39012
37.14	6.35558
37.15	6.33683
37.16	6.42992
37.17	6.40788
37.18	6.49242
37.19	6.42597
37.2	6.40591
37.21	6.39078
37.22	6.35097
37.23	6.41051
37.24	6.38091
37.25	6.38124
37.26	6.38979
37.27	6.38058
37.28	6.43058
37.29	6.44176
37.3	6.45361
37.31	6.38913
37.32	6.37301
37.33	6.29077
37.34	6.37762
37.35	6.41709
37.36	6.41183
37.37	6.3763
37.38	6.36413
37.39	6.37696
37.4	6.38321
37.41	6.38683
37.42	6.42203
37.43	6.38683
37.44	6.37466
37.45	6.40459
37.46	6.36972
37.47	6.4467
37.48	6.42499
37.49	6.39143
37.5	6.39143
37.51	6.39439
37.52	6.37795
37.53	6.42203
37.54	6.42104
37.55	6.35163
37.56	6.3467
37.57	6.41479
37.58	6.43847
37.59	6.47565
37.6	6.38058
37.61	6.38255
37.62	6.42236
37.63	6.374
37.64	6.38979
37.65	6.4138
37.66	6.43453
37.67	6.35689
37.68	6.35985
37.69	6.41578
37.7	6.37104
37.71	6.36808
37.72	6.41315
37.73	6.39834
37.74	6.39867
37.75	6.41611
37.76	6.37959
37.77	6.41446
37.78	6.40492
37.79	6.3763
37.8	6.36907
37.81	6.40393
37.82	6.36972
37.83	6.44867
37.84	6.43913
37.85	6.39143
37.86	6.39078
37.87	6.40229
37.88	6.40229
37.89	6.40097
37.9	6.38716
37.91	6.37268
37.92	6.41972
37.93	6.39143
37.94	6.39768
37.95	6.40986
37.96	6.37959
37.97	6.39966
37.98	6.40788
37.99	6.39571
38	6.4444
38.01	6.36051
38.02	6.38716
38.03	6.44045
38.04	6.40262
38.05	6.41051
38.06	6.37893
38.07	6.38782
38.08	6.4013
38.09	6.37499
38.1	6.38946
38.11	6.40953
38.12	6.39176
38.13	6.42992
38.14	6.45098
38.15	6.42071
38.16	6.39571
38.17	6.40755
38.18	6.44867
38.19	6.4319
38.2	6.42005
38.21	6.42268
38.22	6.4069
38.23	6.43519
38.24	6.40295
38.25	6.36084
38.26	6.40064
38.27	6.38847
38.28	6.40328
38.29	6.43124
38.3	6.47795
38.31	6.47005
38.32	6.38716
38.33	6.41479
38.34	6.44736
38.35	6.38782
38.36	6.39604
38.37	6.41808
38.38	6.40229
38.39	6.44604
38.4	6.46973
38.41	6.44505
38.42	6.39736
38.43	6.39505
38.44	6.43025
38.45	6.38288
38.46	6.40492
38.47	6.41874
38.48	6.41709
38.49	6.39242
38.5	6.39143
38.51	6.4069
38.52	6.42236
38.53	6.38485
38.54	6.39143
38.55	6.3717
38.56	6.41611
38.57	6.38913
38.58	6.43782
38.59	6.42236
38.6	6.42696
38.61	6.41611
38.62	6.42038
38.63	6.40032
38.64	6.37729
38.65	6.42268
38.66	6.4013
38.67	6.39439
38.68	6.41413
38.69	6.39736
38.7	6.38387
38.71	6.39341
38.72	6.3842
38.73	6.36841
38.74	6.45624
38.75	6.44933
38.76	6.44999
38.77	6.41775
38.78	6.41117
38.79	6.42795
38.8	6.44769
38.81	6.43058
38.82	6.39834
38.83	6.38058
38.84	6.39736
38.85	6.37071
38.86	6.36512
38.87	6.40854
38.88	6.4592
38.89	6.44999
38.9	6.41051
38.91	6.38255
38.92	6.37795
38.93	6.40229
38.94	6.37696
38.95	6.39538
38.96	6.43815
38.97	6.44308
38.98	6.39505
38.99	6.3888
39	6.41545
39.01	6.41578
39.02	6.40229
39.03	6.38124
39.04	6.38847
39.05	6.39111
39.06	6.48025
39.07	6.4592
39.08	6.43847
39.09	6.39472
39.1	6.44012
39.11	6.40525
39.12	6.41446
39.13	6.37005
39.14	6.35854
39.15	6.38124
39.16	6.40328
39.17	6.43222
39.18	6.37499
39.19	6.39571
39.2	6.3513
39.21	6.42301
39.22	6.40788
39.23	6.38091
39.24	6.39966
39.25	6.41413
39.26	6.38058
39.27	6.38814
39.28	6.39505
39.29	6.38453
39.3	6.41051
39.31	6.349
39.32	6.35459
39.33	6.36742
39.34	6.41413
39.35	6.39209
39.36	6.38354
39.37	6.39505
39.38	6.39736
39.39	6.39768
39.4	6.38255
39.41	6.40426
39.42	6.42236
39.43	6.38255
39.44	6.38354
39.45	6.41676
39.46	6.40854
39.47	6.3661
39.48	6.42532
39.49	6.37663
39.5	6.36709
39.51	6.44045
39.52	6.4365
39.53	6.40032
39.54	6.43946
39.55	6.42828
39.56	6.40821
39.57	6.40887
39.58	6.43913
39.59	6.39571
39.6	6.37433
39.61	6.38288
39.62	6.42433
39.63	6.37926
39.64	6.36874
39.65	6.37828
39.66	6.38387
39.67	6.37663
39.68	6.38058
39.69	6.39374
39.7	6.37071
39.71	6.42499
39.72	6.40722
39.73	6.40525
39.74	6.44374
39.75	6.42301
39.76	6.41018
39.77	6.3786
39.78	6.36676
39.79	6.41479
39.8	6.40032
39.81	6.37005
39.82	6.43486
39.83	6.39012
39.84	6.41084
39.85	6.3865
39.86	6.42071
39.87	6.43025
39.88	6.42532
39.89	6.38814
39.9	6.45887
39.91	6.43453
39.92	6.41315
39.93	6.4513
39.94	6.39867
39.95	6.36841
39.96	6.35229
39.97	6.39143
39.98	6.37893
39.99	6.36183
40	6.40657
40.01	6.36545
40.02	6.40196
40.03	6.42762
40.04	6.40229
40.05	6.39966
40.06	6.40558
40.07	6.41611
40.08	6.41545
40.09	6.39472
40.1	6.38584
40.11	6.41874
40.12	6.41084
40.13	6.37828
40.14	6.36084
40.15	6.39012
40.16	6.3865
40.17	6.43913
40.18	6.4217
40.19	6.40196
40.2	6.39374
40.21	6.44308
40.22	6.44012
40.23	6.4069
40.24	6.42663
40.25	6.41084
40.26	6.37696
40.27	6.39439
40.28	6.39801
40.29	6.40196
40.3	6.39966
40.31	6.41775
40.32	6.36216
40.33	6.41051
40.34	6.41578
40.35	6.38255
40.36	6.40953
40.37	6.41183
40.38	6.37499
40.39	6.38847
40.4	6.38782
40.41	6.42565
40.42	6.41545
40.43	6.4569
40.44	6.47071
40.45	6.38979
40.46	6.36874
40.47	6.41479
40.48	6.38387
40.49	6.36281
40.5	6.4319
40.51	6.44209
40.52	6.45295
40.53	6.45723
40.54	6.46051
40.55	6.39736
40.56	6.39637
40.57	6.4388
40.58	6.46644
40.59	6.4569
40.6	6.40492
40.61	6.35722
40.62	6.40262
40.63	6.36643
40.64	6.37203
40.65	6.4513
40.66	6.4444
40.67	6.43979
40.68	6.36907
40.69	6.37959
40.7	6.3786
40.71	6.36939
40.72	6.40032
40.73	6.46578
40.74	6.43683
40.75	6.36907
40.76	6.40163
40.77	6.45032
40.78	6.37005
40.79	6.35492
40.8	6.39407
40.81	6.39604
40.82	6.37696
40.83	6.45361
40.84	6.42926
40.85	6.41643
40.86	6.42532
40.87	6.40953
40.88	6.41315
40.89	6.34439
40.9	6.36578
40.91	6.43222
40.92	6.40854
40.93	6.39505
40.94	6.38124
40.95	6.4092
40.96	6.43288
40.97	6.41018
40.98	6.37696
40.99	6.36775
41	6.40953
41.01	6.41742
41.02	6.39209
41.03	6.37301
41.04	6.46183
41.05	6.40032
41.06	6.39604
41.07	6.3763
41.08	6.38683
41.09	6.44473
41.1	6.45229
41.11	6.39999
41.12	6.39341
41.13	6.40755
41.14	6.41282
41.15	6.3967
41.16	6.39275
41.17	6.41841
41.18	6.37926
41.19	6.42894
41.2	6.46051
41.21	6.43815
41.22	6.43749
41.23	6.41183
41.24	6.41808
41.25	6.3763
41.26	6.3786
41.27	6.4342
41.28	6.42236
41.29	6.38288
41.3	6.37071
41.31	6.39834
41.32	6.36643
41.33	6.42104
41.34	6.36051
41.35	6.34768
41.36	6.41446
41.37	6.36314
41.38	6.33814
41.39	6.34702
41.4	6.38683
41.41	6.43354
41.42	6.38617
41.43	6.37893
41.44	6.36117
41.45	6.35492
41.46	6.38814
41.47	6.46479
41.48	6.39045
41.49	6.36939
41.5	6.34406
41.51	6.37696
41.52	6.36479
41.53	6.42236
41.54	6.39078
41.55	6.39209
41.56	6.37005
41.57	6.41446
41.58	6.42104
41.59	6.38387
41.6	6.40328
41.61	6.40755
41.62	6.44999
41.63	6.41117
41.64	6.43058
41.65	6.40657
41.66	6.37729
41.67	6.34406
41.68	6.36183
41.69	6.40986
41.7	6.44308
41.71	6.45065
41.72	6.3763
41.73	6.39242
41.74	6.38551
41.75	6.37597
41.76	6.38387
41.77	6.34834
41.78	6.42104
41.79	6.35953
41.8	6.38157
41.81	6.33354
41.82	6.34406
41.83	6.36841
41.84	6.33683
41.85	6.37203
41.86	6.37959
41.87	6.39111
41.88	6.40097
41.89	6.42532
41.9	6.38288
41.91	6.40196
41.92	6.37729
41.93	6.40097
41.94	6.40163
41.95	6.3888
41.96	6.43288
41.97	6.38157
41.98	6.3763
41.99	6.43321
42	6.40393
42.01	6.44111
42.02	6.40624
42.03	6.38058
42.04	6.41545
42.05	6.42696
42.06	6.42565
42.07	6.40854
42.08	6.40064
42.09	6.42597
42.1	6.41643
42.11	6.41051
42.12	6.34999
42.13	6.38321
42.14	6.38222
42.15	6.39966
42.16	6.42499
42.17	6.37466
42.18	6.37499
42.19	6.36413
42.2	6.35492
42.21	6.38683
42.22	6.42532
42.23	6.35426
42.24	6.45032
42.25	6.3967
42.26	6.34702
42.27	6.43749
42.28	6.41446
42.29	6.4319
42.3	6.34143
42.31	6.36479
42.32	6.40097
42.33	6.36841
42.34	6.41709
42.35	6.374
42.36	6.4115
42.37	6.38847
42.38	6.35788
42.39	6.3217
42.4	6.35328
42.41	6.37301
42.42	6.39341
42.43	6.44111
42.44	6.42466
42.45	6.35887
42.46	6.39439
42.47	6.40262
42.48	6.42203
42.49	6.45755
42.5	6.38551
42.51	6.39078
42.52	6.39703
42.53	6.3661
42.54	6.37104
42.55	6.40328
42.56	6.3786
42.57	6.38979
42.58	6.39111
42.59	6.36578
42.6	6.4365
42.61	6.39999
42.62	6.43255
42.63	6.43321
42.64	6.43683
42.65	6.37696
42.66	6.40459
42.67	6.41643
42.68	6.36249
42.69	6.35985
42.7	6.4138
42.71	6.42367
42.72	6.36216
42.73	6.40459
42.74	6.3763
42.75	6.37959
42.76	6.36939
42.77	6.38518
42.78	6.43551
42.79	6.41611
42.8	6.39867
42.81	6.41183
42.82	6.35492
42.83	6.41643
42.84	6.33452
42.85	6.38189
42.86	6.33452
42.87	6.42104
42.88	6.39999
42.89	6.43584
42.9	6.4069
42.91	6.40361
42.92	6.37564
42.93	6.42597
42.94	6.43946
42.95	6.40229
42.96	6.44604
42.97	6.3592
42.98	6.35295
42.99	6.40196
43	6.39801
43.01	6.44538
43.02	6.41282
43.03	6.39308
43.04	6.36808
43.05	6.38453
43.06	6.4115
43.07	6.38782
43.08	6.39209
43.09	6.39374
43.1	6.37038
43.11	6.40032
43.12	6.38354
43.13	6.3865
43.14	6.36216
43.15	6.40426
43.16	6.40229
43.17	6.39834
43.18	6.39571
43.19	6.38387
43.2	6.36841
43.21	6.35262
43.22	6.38814
43.23	6.43025
43.24	6.48584
43.25	6.40525
43.26	6.35788
43.27	6.34999
43.28	6.374
43.29	6.33354
43.3	6.39078
43.31	6.40426
43.32	6.4013
43.33	6.38847
43.34	6.39078
43.35	6.42301
43.36	6.39571
43.37	6.37301
43.38	6.39472
43.39	6.43913
43.4	6.37268
43.41	6.41512
43.42	6.39439
43.43	6.44308
43.44	6.41018
43.45	6.36281
43.46	6.39407
43.47	6.39045
43.48	6.40591
43.49	6.37301
43.5	6.38091
43.51	6.41282
43.52	6.37926
43.53	6.39505
43.54	6.35525
43.55	6.42894
43.56	6.3467
43.57	6.35295
43.58	6.39999
43.59	6.38749
43.6	6.38157
43.61	6.38124
43.62	6.37893
43.63	6.39341
43.64	6.35788
43.65	6.38913
43.66	6.3592
43.67	6.36249
43.68	6.34867
43.69	6.42565
43.7	6.39439
43.71	6.4513
43.72	6.41841
43.73	6.35196
43.74	6.37334
43.75	6.36676
43.76	6.42005
43.77	6.42729
43.78	6.40393
43.79	6.4217
43.8	6.44374
43.81	6.38025
43.82	6.39374
43.83	6.37334
43.84	6.40393
43.85	6.38321
43.86	6.39143
43.87	6.41808
43.88	6.35953
43.89	6.39111
43.9	6.35525
43.91	6.4013
43.92	6.38683
43.93	6.38551
43.94	6.35591
43.95	6.36939
43.96	6.37005
43.97	6.38946
43.98	6.36051
43.99	6.37433
44	6.40854
44.01	6.39143
44.02	6.38518
44.03	6.3763
44.04	6.37235
44.05	6.40821
44.06	6.39604
44.07	6.42762
44.08	6.38354
44.09	6.44867
44.1	6.43486
44.11	6.39703
44.12	6.31709
44.13	6.40591
44.14	6.43979
44.15	6.36939
44.16	6.38222
44.17	6.40591
44.18	6.41117
44.19	6.41249
44.2	6.42499
44.21	6.39604
44.22	6.39834
44.23	6.38091
44.24	6.39966
44.25	6.32992
44.26	6.36676
44.27	6.38222
44.28	6.40459
44.29	6.35031
44.3	6.34077
44.31	6.40821
44.32	6.42499
44.33	6.40229
44.34	6.38157
44.35	6.42137
44.36	6.40097
44.37	6.35229
44.38	6.38387
44.39	6.39078
44.4	6.3967
44.41	6.41018
44.42	6.40492
44.43	6.4069
44.44	6.39374
44.45	6.38288
44.46	6.34999
44.47	6.39242
44.48	6.40393
44.49	6.38288
44.5	6.39637
44.51	6.35624
44.52	6.38913
44.53	6.4217
44.54	6.35525
44.55	6.3717
44.56	6.38913
44.57	6.40591
44.58	6.40163
44.59	6.42005
44.6	6.35821
44.61	6.36216
44.62	6.39407
44.63	6.41578
44.64	6.38979
44.65	6.42334
44.66	6.3536
44.67	6.38058
44.68	6.37926
44.69	6.39045
44.7	6.42137
44.71	6.39867
44.72	6.3592
44.73	6.3865
44.74	6.38485
44.75	6.3967
44.76	6.37301
44.77	6.39078
44.78	6.41578
44.79	6.36907
44.8	6.41709
44.81	6.4342
44.82	6.41446
44.83	6.36446
44.84	6.39341
44.85	6.42301
44.86	6.38288
44.87	6.38913
44.88	6.41512
44.89	6.34439
44.9	6.36413
44.91	6.41183
44.92	6.40196
44.93	6.42236
44.94	6.38847
44.95	6.36709
44.96	6.34933
44.97	6.40953
44.98	6.43486
44.99	6.44999
45	6.4217
45.01	6.40788
45.02	6.37959
45.03	6.39275
45.04	6.43584
45.05	6.38979
45.06	6.34933
45.07	6.35854
45.08	6.38979
45.09	6.39637
45.1	6.37499
45.11	6.38321
45.12	6.40328
45.13	6.42959
45.14	6.46084
45.15	6.39143
45.16	6.36742
45.17	6.36249
45.18	6.37466
45.19	6.36808
45.2	6.36676
45.21	6.34834
45.22	6.36413
45.23	6.41907
45.24	6.47005
45.25	6.40032
45.26	6.38749
45.27	6.42795
45.28	6.40361
45.29	6.38354
45.3	6.42104
45.31	6.40887
45.32	6.42301
45.33	6.40657
45.34	6.40492
45.35	6.38847
45.36	6.35229
45.37	6.3513
45.38	6.37959
45.39	6.36643
45.4	6.39308
45.41	6.35624
45.42	6.35788
45.43	6.40657
45.44	6.36841
45.45	6.33683
45.46	6.39078
45.47	6.34801
45.48	6.36578
45.49	6.38782
45.5	6.41578
45.51	6.38913
45.52	6.38716
45.53	6.40459
45.54	6.40361
45.55	6.35689
45.56	6.4092
45.57	6.37499
45.58	6.34571
45.59	6.35459
45.6	6.399
45.61	6.41676
45.62	6.40788
45.63	6.42301
45.64	6.40393
45.65	6.41808
45.66	6.44571
45.67	6.36413
45.68	6.35788
45.69	6.3638
45.7	6.38058
45.71	6.38617
45.72	6.35689
45.73	6.3888
45.74	6.41545
45.75	6.43847
45.76	6.41512
45.77	6.41479
45.78	6.36709
45.79	6.41249
45.8	6.42828
45.81	6.38683
45.82	6.37762
45.83	6.40722
45.84	6.46841
45.85	6.39604
45.86	6.37828
45.87	6.37828
45.88	6.38485
45.89	6.39637
45.9	6.38387
45.91	6.42466
45.92	6.39012
45.93	6.37828
45.94	6.42236
45.95	6.44045
45.96	6.39242
45.97	6.41183
45.98	6.39933
45.99	6.41611
46	6.38913
46.01	6.42433
46.02	6.38617
46.03	6.3865
46.04	6.41183
46.05	6.38354
46.06	6.39999
46.07	6.38124
46.08	6.42597
46.09	6.40064
46.1	6.34012
46.11	6.39275
46.12	6.37532
46.13	6.3763
46.14	6.39209
46.15	6.33354
46.16	6.35985
46.17	6.37729
46.18	6.35854
46.19	6.37499
46.2	6.41315
46.21	6.34834
46.22	6.39571
46.23	6.38058
46.24	6.38749
46.25	6.36907
46.26	6.399
46.27	6.39538
46.28	6.41643
46.29	6.32564
46.3	6.3388
46.31	6.42597
46.32	6.40788
46.33	6.38288
46.34	6.35591
46.35	6.39966
46.36	6.40393
46.37	6.37532
46.38	6.38058
46.39	6.36314
46.4	6.40755
46.41	6.34768
46.42	6.39439
46.43	6.36018
46.44	6.38979
46.45	6.37828
46.46	6.39736
46.47	6.39439
46.48	6.40295
46.49	6.35262
46.5	6.35656
46.51	6.399
46.52	6.41249
46.53	6.3661
46.54	6.3967
46.55	6.40558
46.56	6.39176
46.57	6.41742
46.58	6.41676
46.59	6.37005
46.6	6.39933
46.61	6.39571
46.62	6.41611
46.63	6.35689
46.64	6.39341
46.65	6.42565
46.66	6.3786
46.67	6.39801
46.68	6.38749
46.69	6.41051
46.7	6.45821
46.71	6.36479
46.72	6.39012
46.73	6.40788
46.74	6.41446
46.75	6.42729
46.76	6.35393
46.77	6.37301
46.78	6.38617
46.79	6.39571
46.8	6.38782
46.81	6.349
46.82	6.37137
46.83	6.3365
46.84	6.37893
46.85	6.39012
46.86	6.43091
46.87	6.399
46.88	6.41315
46.89	6.39604
46.9	6.34341
46.91	6.37235
46.92	6.40328
46.93	6.36907
46.94	6.3467
46.95	6.41841
46.96	6.40624
46.97	6.40097
46.98	6.35558
46.99	6.32827
47	6.36479
47.01	6.37005
47.02	6.34867
47.03	6.34768
47.04	6.36216
47.05	6.42499
47.06	6.38255
47.07	6.33288
47.08	6.37301
47.09	6.3842
47.1	6.37696
47.11	6.34176
47.12	6.40887
47.13	6.40657
47.14	6.34768
47.15	6.36347
47.16	6.36281
47.17	6.39374
47.18	6.37466
47.19	6.46348
47.2	6.39045
47.21	6.35196
47.22	6.349
47.23	6.3513
47.24	6.41907
47.25	6.40295
47.26	6.39341
47.27	6.39867
47.28	6.35229
47.29	6.39078
47.3	6.39242
47.31	6.37334
47.32	6.41578
47.33	6.40854
47.34	6.39078
47.35	6.38847
47.36	6.39045
47.37	6.41643
47.38	6.39703
47.39	6.39374
47.4	6.42696
47.41	6.36018
47.42	6.36709
47.43	6.37597
47.44	6.40328
47.45	6.37433
47.46	6.40821
47.47	6.40196
47.48	6.42268
47.49	6.43716
47.5	6.37203
47.51	6.4013
47.52	6.37959
47.53	6.37926
47.54	6.39768
47.55	6.43091
47.56	6.39801
47.57	6.38025
47.58	6.41709
47.59	6.40657
47.6	6.42005
47.61	6.39966
47.62	6.40459
47.63	6.39045
47.64	6.41479
47.65	6.38058
47.66	6.31775
47.67	6.38091
47.68	6.3763
47.69	6.37893
47.7	6.40393
47.71	6.41874
47.72	6.34834
47.73	6.42663
47.74	6.38354
47.75	6.4138
47.76	6.36479
47.77	6.39867
47.78	6.39538
47.79	6.35788
47.8	6.38387
47.81	6.40755
47.82	6.36512
47.83	6.39078
47.84	6.41972
47.85	6.37137
47.86	6.35689
47.87	6.36084
47.88	6.39275
47.89	6.36808
47.9	6.37532
47.91	6.36775
47.92	6.43453
47.93	6.41512
47.94	6.36545
47.95	6.35097
47.96	6.3536
47.97	6.37499
47.98	6.39439
47.99	6.41808
48	6.39801
48.01	6.41479
48.02	6.39012
48.03	6.3661
48.04	6.32926
48.05	6.39176
48.06	6.36314
48.07	6.37005
48.08	6.38946
48.09	6.39275
48.1	6.33781
48.11	6.37828
48.12	6.43091
48.13	6.35459
48.14	6.35821
48.15	6.44834
48.16	6.48025
48.17	6.40657
48.18	6.42565
48.19	6.41117
48.2	6.37795
48.21	6.38453
48.22	6.43058
48.23	6.45295
48.24	6.39407
48.25	6.38387
48.26	6.37762
48.27	6.34176
48.28	6.39538
48.29	6.33124
48.3	6.35031
48.31	6.38288
48.32	6.38847
48.33	6.3638
48.34	6.34045
48.35	6.38551
48.36	6.3888
48.37	6.42926
48.38	6.35031
48.39	6.34999
48.4	6.40032
48.41	6.36775
48.42	6.3786
48.43	6.36216
48.44	6.37696
48.45	6.37301
48.46	6.3615
48.47	6.34275
48.48	6.349
48.49	6.38979
48.5	6.36446
48.51	6.37893
48.52	6.37762
48.53	6.37071
48.54	6.34966
48.55	6.37104
48.56	6.34275
48.57	6.38091
48.58	6.41413
48.59	6.38946
48.6	6.3842
48.61	6.39111
48.62	6.41084
48.63	6.43124
48.64	6.40854
48.65	6.36972
48.66	6.38749
48.67	6.34341
48.68	6.35656
48.69	6.38847
48.7	6.424
48.71	6.37071
48.72	6.40854
48.73	6.34143
48.74	6.38979
48.75	6.44407
48.76	6.42597
48.77	6.38847
48.78	6.32564
48.79	6.34933
48.8	6.3661
48.81	6.36413
48.82	6.4069
48.83	6.34472
48.84	6.38946
48.85	6.38551
48.86	6.33946
48.87	6.39571
48.88	6.36874
48.89	6.39012
48.9	6.39209
48.91	6.38946
48.92	6.4013
48.93	6.42301
48.94	6.43815
48.95	6.40722
48.96	6.42203
48.97	6.40097
48.98	6.39143
48.99	6.40196
49	6.3786
49.01	6.36972
49.02	6.374
49.03	6.41676
49.04	6.4069
49.05	6.36314
49.06	6.3842
49.07	6.35821
49.08	6.38255
49.09	6.424
49.1	6.45032
49.11	6.43519
49.12	6.4467
49.13	6.43815
49.14	6.37926
49.15	6.3865
49.16	6.38749
49.17	6.36051
49.18	6.37499
49.19	6.36775
49.2	6.37301
49.21	6.38782
49.22	6.41545
49.23	6.43387
49.24	6.37663
49.25	6.39637
49.26	6.424
49.27	6.43584
49.28	6.42565
49.29	6.37729
49.3	6.374
49.31	6.39407
49.32	6.37137
49.33	6.39242
49.34	6.4217
49.35	6.36446
49.36	6.42926
49.37	6.37499
49.38	6.36808
49.39	6.40163
49.4	6.36841
49.41	6.399
49.42	6.43716
49.43	6.45361
49.44	6.40459
49.45	6.31216
49.46	6.39637
49.47	6.38749
49.48	6.38288
49.49	6.39505
49.5	6.38617
49.51	6.37235
49.52	6.39571
49.53	6.37268
49.54	6.3888
49.55	6.39571
49.56	6.35788
49.57	6.3786
49.58	6.43091
49.59	6.43157
49.6	6.36841
49.61	6.34571
49.62	6.34867
49.63	6.35328
49.64	6.41315
49.65	6.42466
49.66	6.39275
49.67	6.38321
49.68	6.41249
49.69	6.43288
49.7	6.41282
49.71	6.40361
49.72	6.39012
49.73	6.36972
49.74	6.38189
49.75	6.38321
49.76	6.36117
49.77	6.38814
49.78	6.36939
49.79	6.37828
49.8	6.3638
49.81	6.43617
49.82	6.38387
49.83	6.37071
49.84	6.37268
49.85	6.36808
49.86	6.40755
49.87	6.40492
49.88	6.37334
49.89	6.35295
49.9	6.37367
49.91	6.45065
49.92	6.41808
49.93	6.37564
49.94	6.37729
49.95	6.41051
49.96	6.36183
49.97	6.30492
49.98	6.35755
49.99	6.39111
50	6.39407
