"BIO-KINE ASCII FILE"
"_COMMENT"	"MOS-500 Spectrometer"
"_COMMENT"	"Kinetics measurement"
"_COMMENT"	"Y Unit : Volt,  X Unit : s"
"_COMMENT"	"Excitation wavelength : 380 nm"
"_COMMENT"	"Fentes bandwidth =  1 nm"
"_COMMENT"	"HV= 850V"
"_COMMENT"	"Timebase  1 =  .01 s   3001 pts"
"_SFM"	"SFM-400 /S  Advanced mode"
"_SFM"	"Ratio : S1: 2.5, S2: 0, S3: 0, S4: 1"
"_SFM"	"Content : S1: , S2: , S3: , S4:"
"_SFM"	"Concentration : S1: , S2: , S3: , S4:"
"_SFM"	"Total volume : 209 µl  Flow : 3.5 mL/s"
"_SFM"	"Acquisition start :  10 ms before stop"
"_SFM"	"cuve=FC-15, s1=10 ml , s2=10 ml , s3=10 ml , s4=1.9 ml"
"_UNITX"	"s"
"_UNITY"	"Volt"
"_DELTAX"	0
"_DATA"
1e-300	0.883364
0.01	1.31298
0.02	1.89985
0.03	2.06926
0.04	2.04985
0.05	2.0959
0.06	2.09229
0.07	2.08604
0.08	2.10051
0.09	2.10084
0.1	2.11367
0.11	2.1061
0.12	2.10248
0.13	2.09985
0.14	2.09064
0.15	2.10084
0.16	2.09821
0.17	2.09229
0.18	2.10347
0.19	2.09854
0.2	2.08735
0.21	2.1038
0.22	2.11564
0.23	2.11959
0.24	2.09854
0.25	2.0959
0.26	2.09689
0.27	2.09327
0.28	2.09163
0.29	2.10248
0.3	2.09952
0.31	2.09755
0.32	2.09163
0.33	2.10347
0.34	2.09196
0.35	2.09163
0.36	2.08538
0.37	2.08406
0.38	2.10314
0.39	2.10544
0.4	2.08735
0.41	2.09689
0.42	2.10314
0.43	2.10841
0.44	2.09097
0.45	2.0936
0.46	2.1015
0.47	2.08209
0.48	2.09623
0.49	2.07814
0.5	2.07748
0.51	2.08669
0.52	2.07584
0.53	2.07748
0.54	2.08373
0.55	2.08176
0.56	2.07518
0.57	2.06893
0.58	2.07551
0.59	2.07979
0.6	2.09459
0.61	2.08077
0.62	2.06761
0.63	2.06926
0.64	2.0515
0.65	2.06104
0.66	2.07847
0.67	2.07814
0.68	2.06104
0.69	2.06696
0.7	2.07156
0.71	2.06729
0.72	2.05544
0.73	2.06104
0.74	2.07715
0.75	2.064
0.76	2.06794
0.77	2.06005
0.78	2.06367
0.79	2.06268
0.8	2.07123
0.81	2.06926
0.82	2.05182
0.83	2.04557
0.84	2.05775
0.85	2.04261
0.86	2.03571
0.87	2.0459
0.88	2.04886
0.89	2.05215
0.9	2.03439
0.91	2.04393
0.92	2.04755
0.93	2.0538
0.94	2.06038
0.95	2.05018
0.96	2.04294
0.97	2.039
0.98	2.04557
0.99	2.05018
1	2.04327
1.01	2.04196
1.02	2.03209
1.03	2.04163
1.04	2.04459
1.05	2.03571
1.06	2.06038
1.07	2.04163
1.08	2.03702
1.09	2.02551
1.1	2.04525
1.11	2.03439
1.12	2.01827
1.13	2.02189
1.14	2.03735
1.15	2.02255
1.16	2.04031
1.17	2.02715
1.18	2.03143
1.19	2.03636
1.2	2.02288
1.21	2.02682
1.22	2.02913
1.23	2.02419
1.24	2.0186
1.25	2.01202
1.26	2.00774
1.27	2.02551
1.28	2.01695
1.29	2.03242
1.3	2.02386
1.31	2.00478
1.32	2.01695
1.33	2.02946
1.34	2.01235
1.35	2.00445
1.36	2.02123
1.37	2.00445
1.38	1.99426
1.39	2.02255
1.4	2.02946
1.41	1.99557
1.42	2.01268
1.43	1.99327
1.44	1.99656
1.45	2.00873
1.46	1.99689
1.47	1.99327
1.48	1.9982
1.49	2.00116
1.5	2.01367
1.51	2.0084
1.52	2.00445
1.53	1.99755
1.54	1.98834
1.55	1.99163
1.56	1.98998
1.57	2.00182
1.58	2.01301
1.59	1.9959
1.6	1.98406
1.61	1.9834
1.62	1.98866
1.63	1.99163
1.64	1.99755
1.65	1.99195
1.66	1.97945
1.67	1.9788
1.68	1.9811
1.69	1.97781
1.7	1.98998
1.71	1.98801
1.72	1.98669
1.73	1.98537
1.74	1.98505
1.75	1.97189
1.76	1.97189
1.77	1.95807
1.78	1.97551
1.79	1.97649
1.8	1.97682
1.81	1.96991
1.82	1.9788
1.83	1.99491
1.84	1.98241
1.85	1.97682
1.86	1.96827
1.87	1.95643
1.88	1.95445
1.89	1.96991
1.9	1.96991
1.91	1.97419
1.92	1.9584
1.93	1.96695
1.94	1.97649
1.95	1.96958
1.96	1.96597
1.97	1.96366
1.98	1.96597
1.99	1.94722
2	1.97123
2.01	1.97386
2.02	1.9561
2.03	1.95939
2.04	1.95873
2.05	1.94754
2.06	1.95445
2.07	1.94228
2.08	1.95643
2.09	1.97189
2.1	1.95116
2.11	1.97386
2.12	1.96958
2.13	1.94327
2.14	1.95807
2.15	1.95314
2.16	1.94853
2.17	1.9561
2.18	1.95511
2.19	1.96202
2.2	1.94557
2.21	1.95873
2.22	1.95577
2.23	1.92748
2.24	1.9436
2.25	1.93998
2.26	1.93965
2.27	1.95149
2.28	1.93603
2.29	1.92879
2.3	1.93998
2.31	1.93932
2.32	1.95248
2.33	1.95051
2.34	1.93899
2.35	1.93866
2.36	1.92287
2.37	1.93439
2.38	1.93702
2.39	1.93143
2.4	1.91925
2.41	1.93044
2.42	1.94458
2.43	1.93932
2.44	1.93143
2.45	1.93833
2.46	1.92847
2.47	1.92386
2.48	1.91794
2.49	1.92682
2.5	1.93175
2.51	1.91629
2.52	1.90478
2.53	1.9232
2.54	1.92945
2.55	1.92682
2.56	1.92649
2.57	1.91136
2.58	1.92353
2.59	1.9186
2.6	1.91958
2.61	1.91662
2.62	1.91103
2.63	1.91761
2.64	1.91235
2.65	1.91366
2.66	1.90906
2.67	1.90642
2.68	1.91103
2.69	1.91235
2.7	1.91564
2.71	1.91761
2.72	1.91037
2.73	1.9084
2.74	1.91498
2.75	1.90873
2.76	1.9061
2.77	1.90971
2.78	1.90807
2.79	1.913
2.8	1.91366
2.81	1.9107
2.82	1.9005
2.83	1.89787
2.84	1.90675
2.85	1.88373
2.86	1.90182
2.87	1.8982
2.88	1.90248
2.89	1.89096
2.9	1.89392
2.91	1.90346
2.92	1.89392
2.93	1.88702
2.94	1.8959
2.95	1.88175
2.96	1.89195
2.97	1.88767
2.98	1.88504
2.99	1.8811
3	1.89458
3.01	1.90248
3.02	1.89294
3.03	1.88603
3.04	1.88044
3.05	1.90873
3.06	1.89261
3.07	1.88537
3.08	1.89491
3.09	1.89557
3.1	1.88932
3.11	1.89689
3.12	1.89228
3.13	1.89327
3.14	1.89524
3.15	1.87123
3.16	1.87682
3.17	1.87386
3.18	1.87649
3.19	1.89985
3.2	1.88603
3.21	1.88307
3.22	1.88899
3.23	1.87484
3.24	1.88373
3.25	1.88373
3.26	1.88274
3.27	1.88077
3.28	1.87879
3.29	1.87517
3.3	1.88307
3.31	1.86136
3.32	1.86892
3.33	1.87912
3.34	1.88438
3.35	1.87386
3.36	1.86695
3.37	1.8607
3.38	1.86827
3.39	1.87024
3.4	1.86958
3.41	1.86892
3.42	1.86662
3.43	1.87188
3.44	1.87452
3.45	1.86596
3.46	1.86267
3.47	1.8584
3.48	1.86859
3.49	1.86563
3.5	1.85511
3.51	1.85609
3.52	1.86136
3.53	1.86202
3.54	1.86465
3.55	1.85873
3.56	1.86958
3.57	1.86563
3.58	1.85478
3.59	1.86202
3.6	1.85807
3.61	1.8505
3.62	1.84984
3.63	1.84984
3.64	1.84524
3.65	1.83701
3.66	1.84787
3.67	1.85675
3.68	1.86004
3.69	1.85873
3.7	1.85346
3.71	1.84557
3.72	1.83701
3.73	1.84392
3.74	1.84425
3.75	1.84261
3.76	1.83833
3.77	1.86004
3.78	1.84491
3.79	1.84392
3.8	1.84162
3.81	1.82813
3.82	1.8357
3.83	1.8357
3.84	1.84162
3.85	1.85248
3.86	1.84557
3.87	1.84491
3.88	1.84195
3.89	1.84162
3.9	1.82419
3.91	1.84063
3.92	1.83373
3.93	1.82419
3.94	1.84688
3.95	1.84063
3.96	1.84096
3.97	1.83274
3.98	1.83142
3.99	1.83504
4	1.83175
4.01	1.83011
4.02	1.82583
4.03	1.84458
4.04	1.83274
4.05	1.81859
4.06	1.83175
4.07	1.84129
4.08	1.82715
4.09	1.82715
4.1	1.81563
4.11	1.82155
4.12	1.81563
4.13	1.83307
4.14	1.82616
4.15	1.8278
4.16	1.82715
4.17	1.82188
4.18	1.82715
4.19	1.83011
4.2	1.83504
4.21	1.81366
4.22	1.81794
4.23	1.82912
4.24	1.8084
4.25	1.82057
4.26	1.81432
4.27	1.81399
4.28	1.82188
4.29	1.82747
4.3	1.81037
4.31	1.8028
4.32	1.81662
4.33	1.81892
4.34	1.81596
4.35	1.81596
4.36	1.81596
4.37	1.81563
4.38	1.80938
4.39	1.82616
4.4	1.83241
4.41	1.82287
4.42	1.8153
4.43	1.80379
4.44	1.80905
4.45	1.80708
4.46	1.8028
4.47	1.8107
4.48	1.80478
4.49	1.79754
4.5	1.78471
4.51	1.79359
4.52	1.79984
4.53	1.79951
4.54	1.79984
4.55	1.79557
4.56	1.79589
4.57	1.79951
4.58	1.80379
4.59	1.81201
4.6	1.79589
4.61	1.78899
4.62	1.80774
4.63	1.80247
4.64	1.80478
4.65	1.79951
4.66	1.80938
4.67	1.79425
4.68	1.79589
4.69	1.8084
4.7	1.79951
4.71	1.80576
4.72	1.80412
4.73	1.80576
4.74	1.79129
4.75	1.79293
4.76	1.78964
4.77	1.79129
4.78	1.78899
4.79	1.79261
4.8	1.79195
4.81	1.77978
4.82	1.77714
4.83	1.77813
4.84	1.8005
4.85	1.79951
4.86	1.78964
4.87	1.77616
4.88	1.78899
4.89	1.78767
4.9	1.78668
4.91	1.79228
4.92	1.79228
4.93	1.78274
4.94	1.78307
4.95	1.77024
4.96	1.7903
4.97	1.78603
4.98	1.78964
4.99	1.78339
5	1.77517
5.01	1.78504
5.02	1.78504
5.03	1.78109
5.04	1.78471
5.05	1.788
5.06	1.78701
5.07	1.77451
5.08	1.78537
5.09	1.77978
5.1	1.78767
5.11	1.77287
5.12	1.79261
5.13	1.78603
5.14	1.77385
5.15	1.76991
5.16	1.76662
5.17	1.78142
5.18	1.7653
5.19	1.77517
5.2	1.77221
5.21	1.77583
5.22	1.7778
5.23	1.75774
5.24	1.76037
5.25	1.75971
5.26	1.76135
5.27	1.76925
5.28	1.77122
5.29	1.75116
5.3	1.77188
5.31	1.76826
5.32	1.76103
5.33	1.75708
5.34	1.75675
5.35	1.76234
5.36	1.75839
5.37	1.77254
5.38	1.77254
5.39	1.76267
5.4	1.76399
5.41	1.7607
5.42	1.74458
5.43	1.7551
5.44	1.7653
5.45	1.7551
5.46	1.7551
5.47	1.75609
5.48	1.74885
5.49	1.77287
5.5	1.77945
5.51	1.76201
5.52	1.75806
5.53	1.76826
5.54	1.75708
5.55	1.75478
5.56	1.76234
5.57	1.74491
5.58	1.7653
5.59	1.75708
5.6	1.75872
5.61	1.74688
5.62	1.74622
5.63	1.75017
5.64	1.75938
5.65	1.7426
5.66	1.75083
5.67	1.74326
5.68	1.7482
5.69	1.75543
5.7	1.74885
5.71	1.73964
5.72	1.74655
5.73	1.7403
5.74	1.74984
5.75	1.74655
5.76	1.74688
5.77	1.74622
5.78	1.7255
5.79	1.74293
5.8	1.74096
5.81	1.74721
5.82	1.73899
5.83	1.74162
5.84	1.74392
5.85	1.7357
5.86	1.73931
5.87	1.74852
5.88	1.74787
5.89	1.7426
5.9	1.73076
5.91	1.72747
5.92	1.73767
5.93	1.74129
5.94	1.73438
5.95	1.73899
5.96	1.73866
5.97	1.73306
5.98	1.73405
5.99	1.74622
6	1.73471
6.01	1.7278
6.02	1.7426
6.03	1.73833
6.04	1.72517
6.05	1.73142
6.06	1.73866
6.07	1.72517
6.08	1.72616
6.09	1.72945
6.1	1.72945
6.11	1.71629
6.12	1.7357
6.13	1.71991
6.14	1.73668
6.15	1.72912
6.16	1.72056
6.17	1.72221
6.18	1.72747
6.19	1.73241
6.2	1.73372
6.21	1.71793
6.22	1.72385
6.23	1.71793
6.24	1.71563
6.25	1.71694
6.26	1.72945
6.27	1.72254
6.28	1.7301
6.29	1.71793
6.3	1.72648
6.31	1.71431
6.32	1.72451
6.33	1.71991
6.34	1.71333
6.35	1.73241
6.36	1.73537
6.37	1.71662
6.38	1.72056
6.39	1.71201
6.4	1.70148
6.41	1.70938
6.42	1.71398
6.43	1.71727
6.44	1.7301
6.45	1.71069
6.46	1.71991
6.47	1.72977
6.48	1.72681
6.49	1.71991
6.5	1.71662
6.51	1.71398
6.52	1.70609
6.53	1.71793
6.54	1.71201
6.55	1.70412
6.56	1.70741
6.57	1.71333
6.58	1.71892
6.59	1.713
6.6	1.72714
6.61	1.72188
6.62	1.71267
6.63	1.71826
6.64	1.70083
6.65	1.71201
6.66	1.72945
6.67	1.71991
6.68	1.70938
6.69	1.713
6.7	1.72089
6.71	1.71366
6.72	1.70642
6.73	1.70675
6.74	1.69392
6.75	1.70017
6.76	1.70412
6.77	1.69819
6.78	1.69819
6.79	1.71497
6.8	1.71069
6.81	1.71398
6.82	1.70938
6.83	1.68964
6.84	1.70839
6.85	1.71366
6.86	1.70083
6.87	1.70083
6.88	1.70313
6.89	1.70115
6.9	1.70181
6.91	1.68964
6.92	1.69951
6.93	1.69787
6.94	1.69556
6.95	1.69787
6.96	1.68833
6.97	1.69227
6.98	1.70839
6.99	1.69326
7	1.69655
7.01	1.70379
7.02	1.69556
7.03	1.70839
7.04	1.70609
7.05	1.69392
7.06	1.68964
7.07	1.69655
7.08	1.68635
7.09	1.68635
7.1	1.69326
7.11	1.7005
7.12	1.71102
7.13	1.70148
7.14	1.69063
7.15	1.70148
7.16	1.69787
7.17	1.68964
7.18	1.68635
7.19	1.68208
7.2	1.68602
7.21	1.69227
7.22	1.68635
7.23	1.69885
7.24	1.70412
7.25	1.68767
7.26	1.68833
7.27	1.69523
7.28	1.68142
7.29	1.68438
7.3	1.69096
7.31	1.6903
7.32	1.67517
7.33	1.68208
7.34	1.69655
7.35	1.68372
7.36	1.66596
7.37	1.67846
7.38	1.67944
7.39	1.68504
7.4	1.67681
7.41	1.67714
7.42	1.67023
7.43	1.67648
7.44	1.68931
7.45	1.68964
7.46	1.69227
7.47	1.67056
7.48	1.68175
7.49	1.67977
7.5	1.68471
7.51	1.68701
7.52	1.68076
7.53	1.67911
7.54	1.67221
7.55	1.66859
7.56	1.67385
7.57	1.66694
7.58	1.67615
7.59	1.69129
7.6	1.67418
7.61	1.6824
7.62	1.67451
7.63	1.67517
7.64	1.66003
7.65	1.68043
7.66	1.67813
7.67	1.67648
7.68	1.6755
7.69	1.67944
7.7	1.6699
7.71	1.6528
7.72	1.67615
7.73	1.68142
7.74	1.66003
7.75	1.66694
7.76	1.68109
7.77	1.68043
7.78	1.68536
7.79	1.6778
7.8	1.663
7.81	1.6653
7.82	1.66892
7.83	1.67056
7.84	1.66826
7.85	1.66892
7.86	1.66629
7.87	1.67451
7.88	1.65346
7.89	1.66892
7.9	1.67089
7.91	1.66135
7.92	1.66398
7.93	1.68504
7.94	1.67451
7.95	1.66727
7.96	1.66431
7.97	1.66135
7.98	1.66365
7.99	1.66267
8	1.67385
8.01	1.66069
8.02	1.66102
8.03	1.663
8.04	1.65444
8.05	1.6551
8.06	1.65938
8.07	1.65444
8.08	1.64424
8.09	1.6574
8.1	1.66234
8.11	1.663
8.12	1.66464
8.13	1.66661
8.14	1.66135
8.15	1.65806
8.16	1.66168
8.17	1.67319
8.18	1.6676
8.19	1.66365
8.2	1.65642
8.21	1.65642
8.22	1.64622
8.23	1.65411
8.24	1.65872
8.25	1.64885
8.26	1.65378
8.27	1.64951
8.28	1.65872
8.29	1.66859
8.3	1.65839
8.31	1.65806
8.32	1.64819
8.33	1.65872
8.34	1.65642
8.35	1.6574
8.36	1.64589
8.37	1.64556
8.38	1.64589
8.39	1.6528
8.4	1.6551
8.41	1.65477
8.42	1.64622
8.43	1.63438
8.44	1.65411
8.45	1.65444
8.46	1.6505
8.47	1.65642
8.48	1.64194
8.49	1.65247
8.5	1.65411
8.51	1.64589
8.52	1.64424
8.53	1.64194
8.54	1.64852
8.55	1.64392
8.56	1.64293
8.57	1.64688
8.58	1.6403
8.59	1.63734
8.6	1.66727
8.61	1.65247
8.62	1.65247
8.63	1.64096
8.64	1.64523
8.65	1.65148
8.66	1.64753
8.67	1.66398
8.68	1.6699
8.69	1.64885
8.7	1.6403
8.71	1.63438
8.72	1.63799
8.73	1.63503
8.74	1.65181
8.75	1.64721
8.76	1.64457
8.77	1.64063
8.78	1.64457
8.79	1.63306
8.8	1.6403
8.81	1.63898
8.82	1.64063
8.83	1.63931
8.84	1.62911
8.85	1.6324
8.86	1.64523
8.87	1.6528
8.88	1.63964
8.89	1.61694
8.9	1.63109
8.91	1.65017
8.92	1.65444
8.93	1.63536
8.94	1.63142
8.95	1.6403
8.96	1.64556
8.97	1.62385
8.98	1.62253
8.99	1.6324
9	1.64622
9.01	1.63931
9.02	1.63372
9.03	1.61859
9.04	1.62023
9.05	1.63207
9.06	1.62089
9.07	1.63471
9.08	1.63273
9.09	1.63701
9.1	1.63076
9.11	1.63569
9.12	1.6222
9.13	1.63503
9.14	1.63799
9.15	1.62319
9.16	1.63339
9.17	1.63438
9.18	1.61924
9.19	1.6324
9.2	1.62451
9.21	1.6324
9.22	1.63405
9.23	1.63043
9.24	1.61727
9.25	1.62418
9.26	1.63207
9.27	1.63471
9.28	1.62155
9.29	1.62418
9.3	1.62484
9.31	1.63372
9.32	1.61892
9.33	1.62023
9.34	1.63372
9.35	1.63174
9.36	1.6176
9.37	1.6301
9.38	1.62451
9.39	1.62056
9.4	1.63471
9.41	1.6301
9.42	1.62582
9.43	1.62319
9.44	1.62549
9.45	1.63668
9.46	1.63569
9.47	1.61859
9.48	1.62451
9.49	1.63602
9.5	1.63799
9.51	1.62582
9.52	1.6324
9.53	1.62911
9.54	1.6278
9.55	1.62089
9.56	1.62418
9.57	1.61069
9.58	1.61266
9.59	1.62582
9.6	1.62023
9.61	1.61168
9.62	1.62517
9.63	1.62517
9.64	1.61892
9.65	1.63701
9.66	1.62484
9.67	1.62813
9.68	1.61793
9.69	1.61793
9.7	1.6301
9.71	1.61563
9.72	1.61727
9.73	1.62517
9.74	1.62023
9.75	1.6301
9.76	1.61661
9.77	1.61661
9.78	1.62089
9.79	1.62319
9.8	1.62418
9.81	1.61365
9.82	1.61069
9.83	1.61595
9.84	1.61069
9.85	1.61793
9.86	1.61595
9.87	1.62319
9.88	1.60806
9.89	1.61924
9.9	1.6199
9.91	1.61793
9.92	1.62747
9.93	1.60707
9.94	1.61069
9.95	1.61892
9.96	1.62253
9.97	1.60181
9.98	1.61826
9.99	1.62089
10	1.61365
10.01	1.61201
10.02	1.62023
10.03	1.60543
10.04	1.60016
10.05	1.61365
10.06	1.61201
10.07	1.61135
10.08	1.61563
10.09	1.61036
10.1	1.60806
10.11	1.61168
10.12	1.61859
10.13	1.61694
10.14	1.61464
10.15	1.62582
10.16	1.60411
10.17	1.60576
10.18	1.60444
10.19	1.59293
10.2	1.60641
10.21	1.61168
10.22	1.60641
10.23	1.6051
10.24	1.59326
10.25	1.59655
10.26	1.60115
10.27	1.59523
10.28	1.60905
10.29	1.59753
10.3	1.60609
10.31	1.61628
10.32	1.61234
10.33	1.60543
10.34	1.60938
10.35	1.61332
10.36	1.60378
10.37	1.60181
10.38	1.61398
10.39	1.61299
10.4	1.59951
10.41	1.61168
10.42	1.61497
10.43	1.60082
10.44	1.6153
10.45	1.61036
10.46	1.60872
10.47	1.59951
10.48	1.59589
10.49	1.60115
10.5	1.6051
10.51	1.60905
10.52	1.60082
10.53	1.60674
10.54	1.60345
10.55	1.59984
10.56	1.61431
10.57	1.59457
10.58	1.59786
10.59	1.60576
10.6	1.6097
10.61	1.6028
10.62	1.59951
10.63	1.60247
10.64	1.60938
10.65	1.60313
10.66	1.59852
10.67	1.59819
10.68	1.58043
10.69	1.58043
10.7	1.59293
10.71	1.59885
10.72	1.5972
10.73	1.60378
10.74	1.60016
10.75	1.60214
10.76	1.60905
10.77	1.60181
10.78	1.5903
10.79	1.59128
10.8	1.61365
10.81	1.61036
10.82	1.60444
10.83	1.59391
10.84	1.58931
10.85	1.59753
10.86	1.59293
10.87	1.60115
10.88	1.59523
10.89	1.59786
10.9	1.60016
10.91	1.61859
10.92	1.59457
10.93	1.60181
10.94	1.59655
10.95	1.58997
10.96	1.59622
10.97	1.58569
10.98	1.59622
10.99	1.60477
11	1.5949
11.01	1.59326
11.02	1.58766
11.03	1.60082
11.04	1.59556
11.05	1.59819
11.06	1.59687
11.07	1.60115
11.08	1.58437
11.09	1.5824
11.1	1.58207
11.11	1.59852
11.12	1.58832
11.13	1.58898
11.14	1.59951
11.15	1.60576
11.16	1.59391
11.17	1.58734
11.18	1.58865
11.19	1.5926
11.2	1.59391
11.21	1.59391
11.22	1.58273
11.23	1.58503
11.24	1.58372
11.25	1.59556
11.26	1.58602
11.27	1.57352
11.28	1.58372
11.29	1.58931
11.3	1.59293
11.31	1.57977
11.32	1.57582
11.33	1.58997
11.34	1.58799
11.35	1.60016
11.36	1.58405
11.37	1.57549
11.38	1.58569
11.39	1.59457
11.4	1.59062
11.41	1.59194
11.42	1.58207
11.43	1.59556
11.44	1.59984
11.45	1.58865
11.46	1.5926
11.47	1.59194
11.48	1.58569
11.49	1.59326
11.5	1.59885
11.51	1.58569
11.52	1.56431
11.53	1.5824
11.54	1.58405
11.55	1.57747
11.56	1.57122
11.57	1.59194
11.58	1.58141
11.59	1.57615
11.6	1.57122
11.61	1.57155
11.62	1.58043
11.63	1.57516
11.64	1.57516
11.65	1.56957
11.66	1.57023
11.67	1.57352
11.68	1.57187
11.69	1.57549
11.7	1.57648
11.71	1.58076
11.72	1.58898
11.73	1.58766
11.74	1.58964
11.75	1.58569
11.76	1.57878
11.77	1.57516
11.78	1.58437
11.79	1.58931
11.8	1.59194
11.81	1.58437
11.82	1.56332
11.83	1.57714
11.84	1.58503
11.85	1.57878
11.86	1.59128
11.87	1.57878
11.88	1.5824
11.89	1.57648
11.9	1.59293
11.91	1.59885
11.92	1.56957
11.93	1.56332
11.94	1.57352
11.95	1.58141
11.96	1.58108
11.97	1.5676
11.98	1.57648
11.99	1.57845
12	1.56727
12.01	1.57253
12.02	1.57944
12.03	1.57714
12.04	1.56497
12.05	1.56628
12.06	1.57582
12.07	1.5801
12.08	1.57549
12.09	1.57911
12.1	1.58635
12.11	1.57483
12.12	1.57023
12.13	1.57023
12.14	1.57319
12.15	1.57812
12.16	1.5847
12.17	1.56299
12.18	1.56365
12.19	1.57187
12.2	1.56431
12.21	1.57648
12.22	1.57516
12.23	1.57845
12.24	1.57418
12.25	1.57286
12.26	1.57845
12.27	1.57023
12.28	1.57483
12.29	1.57418
12.3	1.56595
12.31	1.56497
12.32	1.57056
12.33	1.5778
12.34	1.5676
12.35	1.56497
12.36	1.55674
12.37	1.57418
12.38	1.57056
12.39	1.57056
12.4	1.56398
12.41	1.5676
12.42	1.56924
12.43	1.56694
12.44	1.57977
12.45	1.57451
12.46	1.56628
12.47	1.57253
12.48	1.57615
12.49	1.56957
12.5	1.55937
12.51	1.5778
12.52	1.56266
12.53	1.57089
12.54	1.56858
12.55	1.56529
12.56	1.56431
12.57	1.57023
12.58	1.55839
12.59	1.57681
12.6	1.56858
12.61	1.57056
12.62	1.56891
12.63	1.57253
12.64	1.5699
12.65	1.56069
12.66	1.57385
12.67	1.56858
12.68	1.57451
12.69	1.56628
12.7	1.57845
12.71	1.58306
12.72	1.56398
12.73	1.56464
12.74	1.57977
12.75	1.56727
12.76	1.56365
12.77	1.56628
12.78	1.56793
12.79	1.56365
12.8	1.56069
12.81	1.5574
12.82	1.56529
12.83	1.56694
12.84	1.56201
12.85	1.57615
12.86	1.57122
12.87	1.56464
12.88	1.57483
12.89	1.57648
12.9	1.57845
12.91	1.56924
12.92	1.5676
12.93	1.57155
12.94	1.56529
12.95	1.56135
12.96	1.56727
12.97	1.56332
12.98	1.55773
12.99	1.56826
13	1.56266
13.01	1.55937
13.02	1.56233
13.03	1.56595
13.04	1.57385
13.05	1.53964
13.06	1.56201
13.07	1.56233
13.08	1.56233
13.09	1.54556
13.1	1.56365
13.11	1.56727
13.12	1.55247
13.13	1.55148
13.14	1.56233
13.15	1.56464
13.16	1.56858
13.17	1.5676
13.18	1.5597
13.19	1.57187
13.2	1.55345
13.21	1.55773
13.22	1.55904
13.23	1.56661
13.24	1.55904
13.25	1.56332
13.26	1.55378
13.27	1.56233
13.28	1.56003
13.29	1.54983
13.3	1.56694
13.31	1.56727
13.32	1.55872
13.33	1.55312
13.34	1.56694
13.35	1.56135
13.36	1.5495
13.37	1.5472
13.38	1.57155
13.39	1.56102
13.4	1.56135
13.41	1.5574
13.42	1.55576
13.43	1.5597
13.44	1.55214
13.45	1.55049
13.46	1.5449
13.47	1.55937
13.48	1.55378
13.49	1.56201
13.5	1.56398
13.51	1.5597
13.52	1.55937
13.53	1.54983
13.54	1.55345
13.55	1.55576
13.56	1.55378
13.57	1.56431
13.58	1.57089
13.59	1.55477
13.6	1.55543
13.61	1.55674
13.62	1.55608
13.63	1.55312
13.64	1.54358
13.65	1.54622
13.66	1.55806
13.67	1.54457
13.68	1.55641
13.69	1.56398
13.7	1.55312
13.71	1.55839
13.72	1.56332
13.73	1.56135
13.74	1.56398
13.75	1.56826
13.76	1.56529
13.77	1.56431
13.78	1.537
13.79	1.55641
13.8	1.5495
13.81	1.54654
13.82	1.55543
13.83	1.54391
13.84	1.56168
13.85	1.56628
13.86	1.5551
13.87	1.55839
13.88	1.55378
13.89	1.5495
13.9	1.55148
13.91	1.53733
13.92	1.56135
13.93	1.55543
13.94	1.55016
13.95	1.55937
13.96	1.54029
13.97	1.53964
13.98	1.54753
13.99	1.55049
14	1.54622
14.01	1.56628
14.02	1.56365
14.03	1.56365
14.04	1.54885
14.05	1.54918
14.06	1.54556
14.07	1.55247
14.08	1.54983
14.09	1.55214
14.1	1.56168
14.11	1.56464
14.12	1.55016
14.13	1.56365
14.14	1.54622
14.15	1.54589
14.16	1.56069
14.17	1.56102
14.18	1.5449
14.19	1.53964
14.2	1.54029
14.21	1.54161
14.22	1.54523
14.23	1.54128
14.24	1.54325
14.25	1.55345
14.26	1.55279
14.27	1.54391
14.28	1.5472
14.29	1.54358
14.3	1.5495
14.31	1.55839
14.32	1.55608
14.33	1.5426
14.34	1.55148
14.35	1.55444
14.36	1.55148
14.37	1.55181
14.38	1.5551
14.39	1.55049
14.4	1.54358
14.41	1.54029
14.42	1.54227
14.43	1.54424
14.44	1.53371
14.45	1.54424
14.46	1.55312
14.47	1.54753
14.48	1.53503
14.49	1.55214
14.5	1.53174
14.51	1.53865
14.52	1.53437
14.53	1.54753
14.54	1.5597
14.55	1.53997
14.56	1.53733
14.57	1.54062
14.58	1.53536
14.59	1.53898
14.6	1.53602
14.61	1.5449
14.62	1.53964
14.63	1.54622
14.64	1.5449
14.65	1.55115
14.66	1.55148
14.67	1.54786
14.68	1.54391
14.69	1.53964
14.7	1.53404
14.71	1.54161
14.72	1.54128
14.73	1.55115
14.74	1.53931
14.75	1.52977
14.76	1.54424
14.77	1.5449
14.78	1.54918
14.79	1.54589
14.8	1.5495
14.81	1.5426
14.82	1.54128
14.83	1.55016
14.84	1.55082
14.85	1.53569
14.86	1.53207
14.87	1.53602
14.88	1.54457
14.89	1.54391
14.9	1.53668
14.91	1.54095
14.92	1.54687
14.93	1.54325
14.94	1.53733
14.95	1.54161
14.96	1.53371
14.97	1.54983
14.98	1.54687
14.99	1.56891
15	1.54983
15.01	1.54391
15.02	1.5347
15.03	1.54457
15.04	1.537
15.05	1.54622
15.06	1.53668
15.07	1.53569
15.08	1.54457
15.09	1.54095
15.1	1.53602
15.11	1.54391
15.12	1.54128
15.13	1.53536
15.14	1.53766
15.15	1.52582
15.16	1.53964
15.17	1.5449
15.18	1.53602
15.19	1.54885
15.2	1.53865
15.21	1.54128
15.22	1.54687
15.23	1.54457
15.24	1.5449
15.25	1.54161
15.26	1.54424
15.27	1.54227
15.28	1.53865
15.29	1.55082
15.3	1.53075
15.31	1.53141
15.32	1.53108
15.33	1.53635
15.34	1.54654
15.35	1.54029
15.36	1.53931
15.37	1.53404
15.38	1.53569
15.39	1.52648
15.4	1.53602
15.41	1.53931
15.42	1.5324
15.43	1.54293
15.44	1.53931
15.45	1.54852
15.46	1.54325
15.47	1.54852
15.48	1.54325
15.49	1.53371
15.5	1.54161
15.51	1.5347
15.52	1.53997
15.53	1.53371
15.54	1.5245
15.55	1.52779
15.56	1.53536
15.57	1.53043
15.58	1.54161
15.59	1.53733
15.6	1.53174
15.61	1.52253
15.62	1.53766
15.63	1.54095
15.64	1.54293
15.65	1.5245
15.66	1.53075
15.67	1.53437
15.68	1.54391
15.69	1.52418
15.7	1.54424
15.71	1.53437
15.72	1.52714
15.73	1.54062
15.74	1.52911
15.75	1.54194
15.76	1.53832
15.77	1.52681
15.78	1.52549
15.79	1.5426
15.8	1.54654
15.81	1.53668
15.82	1.53273
15.83	1.52714
15.84	1.52977
15.85	1.52089
15.86	1.51891
15.87	1.53075
15.88	1.52911
15.89	1.53536
15.9	1.53339
15.91	1.5245
15.92	1.54194
15.93	1.53437
15.94	1.53931
15.95	1.53635
15.96	1.53635
15.97	1.5324
15.98	1.54424
15.99	1.5324
16	1.52483
16.01	1.52089
16.02	1.52615
16.03	1.53207
16.04	1.5347
16.05	1.53635
16.06	1.52779
16.07	1.52056
16.08	1.53898
16.09	1.52089
16.1	1.52648
16.11	1.52615
16.12	1.51891
16.13	1.52418
16.14	1.52977
16.15	1.53931
16.16	1.5245
16.17	1.53108
16.18	1.53437
16.19	1.54293
16.2	1.537
16.21	1.53306
16.22	1.53174
16.23	1.53075
16.24	1.5301
16.25	1.52977
16.26	1.53273
16.27	1.51825
16.28	1.52089
16.29	1.52615
16.3	1.52944
16.31	1.52746
16.32	1.52187
16.33	1.5324
16.34	1.52023
16.35	1.52648
16.36	1.52977
16.37	1.51003
16.38	1.51529
16.39	1.52681
16.4	1.52187
16.41	1.52944
16.42	1.52187
16.43	1.52385
16.44	1.51102
16.45	1.51858
16.46	1.52648
16.47	1.51562
16.48	1.51562
16.49	1.53043
16.5	1.52779
16.51	1.54095
16.52	1.537
16.53	1.52714
16.54	1.52977
16.55	1.52483
16.56	1.52648
16.57	1.54194
16.58	1.52483
16.59	1.5199
16.6	1.52516
16.61	1.52385
16.62	1.52812
16.63	1.52253
16.64	1.52681
16.65	1.52714
16.66	1.53536
16.67	1.53997
16.68	1.53437
16.69	1.52812
16.7	1.51858
16.71	1.51595
16.72	1.5324
16.73	1.53766
16.74	1.53569
16.75	1.52878
16.76	1.51825
16.77	1.53273
16.78	1.5199
16.79	1.5199
16.8	1.52549
16.81	1.51924
16.82	1.52418
16.83	1.52418
16.84	1.52714
16.85	1.51891
16.86	1.52187
16.87	1.52483
16.88	1.52779
16.89	1.52746
16.9	1.51661
16.91	1.52056
16.92	1.52812
16.93	1.51069
16.94	1.5222
16.95	1.52615
16.96	1.5199
16.97	1.52385
16.98	1.52944
16.99	1.53207
17	1.53207
17.01	1.51825
17.02	1.52121
17.03	1.51167
17.04	1.52385
17.05	1.52056
17.06	1.52483
17.07	1.5176
17.08	1.52845
17.09	1.52023
17.1	1.52385
17.11	1.51529
17.12	1.51825
17.13	1.53075
17.14	1.5324
17.15	1.5222
17.16	1.52483
17.17	1.52615
17.18	1.5176
17.19	1.5301
17.2	1.52845
17.21	1.53569
17.22	1.53339
17.23	1.5245
17.24	1.53437
17.25	1.53207
17.26	1.53437
17.27	1.5176
17.28	1.51003
17.29	1.52779
17.3	1.52812
17.31	1.52549
17.32	1.52154
17.33	1.52746
17.34	1.52911
17.35	1.5222
17.36	1.53108
17.37	1.53306
17.38	1.51957
17.39	1.5222
17.4	1.53075
17.41	1.52319
17.42	1.51661
17.43	1.51792
17.44	1.5051
17.45	1.51266
17.46	1.52286
17.47	1.5222
17.48	1.51858
17.49	1.5097
17.5	1.52944
17.51	1.5301
17.52	1.52154
17.53	1.51233
17.54	1.52121
17.55	1.5222
17.56	1.52056
17.57	1.52845
17.58	1.52878
17.59	1.51562
17.6	1.54128
17.61	1.52681
17.62	1.52187
17.63	1.51957
17.64	1.53733
17.65	1.53799
17.66	1.52714
17.67	1.5199
17.68	1.52154
17.69	1.51694
17.7	1.52549
17.71	1.53339
17.72	1.52746
17.73	1.53141
17.74	1.52187
17.75	1.52418
17.76	1.52615
17.77	1.52779
17.78	1.52746
17.79	1.51628
17.8	1.52089
17.81	1.52648
17.82	1.51365
17.83	1.52319
17.84	1.53043
17.85	1.53207
17.86	1.52319
17.87	1.51496
17.88	1.52746
17.89	1.52352
17.9	1.5199
17.91	1.51891
17.92	1.53404
17.93	1.51069
17.94	1.51332
17.95	1.52516
17.96	1.51266
17.97	1.52286
17.98	1.53536
17.99	1.51792
18	1.52582
18.01	1.51792
18.02	1.51825
18.03	1.50641
18.04	1.52187
18.05	1.51891
18.06	1.52911
18.07	1.52056
18.08	1.52253
18.09	1.51628
18.1	1.52154
18.11	1.51529
18.12	1.51464
18.13	1.52253
18.14	1.51299
18.15	1.51299
18.16	1.51529
18.17	1.51727
18.18	1.51365
18.19	1.51102
18.2	1.51858
18.21	1.52319
18.22	1.52977
18.23	1.52483
18.24	1.51003
18.25	1.51727
18.26	1.52089
18.27	1.51661
18.28	1.51562
18.29	1.52319
18.3	1.51924
18.31	1.52286
18.32	1.52911
18.33	1.51825
18.34	1.52385
18.35	1.51891
18.36	1.51135
18.37	1.52121
18.38	1.51562
18.39	1.52187
18.4	1.52187
18.41	1.52648
18.42	1.51299
18.43	1.51398
18.44	1.51891
18.45	1.51891
18.46	1.50871
18.47	1.52549
18.48	1.52681
18.49	1.51529
18.5	1.52418
18.51	1.51529
18.52	1.52023
18.53	1.51431
18.54	1.51003
18.55	1.51595
18.56	1.52253
18.57	1.52516
18.58	1.50312
18.59	1.51464
18.6	1.52714
18.61	1.51628
18.62	1.51496
18.63	1.51562
18.64	1.51167
18.65	1.52056
18.66	1.52516
18.67	1.51069
18.68	1.51233
18.69	1.51398
18.7	1.52023
18.71	1.5074
18.72	1.52187
18.73	1.52253
18.74	1.51562
18.75	1.51957
18.76	1.5245
18.77	1.52319
18.78	1.51365
18.79	1.51595
18.8	1.50806
18.81	1.52648
18.82	1.52121
18.83	1.51628
18.84	1.51464
18.85	1.52056
18.86	1.51924
18.87	1.52352
18.88	1.52089
18.89	1.51036
18.9	1.50904
18.91	1.52648
18.92	1.52023
18.93	1.5176
18.94	1.512
18.95	1.50806
18.96	1.50181
18.97	1.51562
18.98	1.52253
18.99	1.51957
19	1.51924
19.01	1.52154
19.02	1.5324
19.03	1.52483
19.04	1.52352
19.05	1.52089
19.06	1.53437
19.07	1.52385
19.08	1.52253
19.09	1.52779
19.1	1.52615
19.11	1.51924
19.12	1.52121
19.13	1.51891
19.14	1.5199
19.15	1.51431
19.16	1.52121
19.17	1.52121
19.18	1.52056
19.19	1.50608
19.2	1.50049
19.21	1.51464
19.22	1.51595
19.23	1.52089
19.24	1.52944
19.25	1.51102
19.26	1.5097
19.27	1.52154
19.28	1.5074
19.29	1.50871
19.3	1.50937
19.31	1.50608
19.32	1.50312
19.33	1.51562
19.34	1.5097
19.35	1.51529
19.36	1.51431
19.37	1.51496
19.38	1.52615
19.39	1.50904
19.4	1.5301
19.41	1.5222
19.42	1.52352
19.43	1.51891
19.44	1.51135
19.45	1.49917
19.46	1.50806
19.47	1.50477
19.48	1.52056
19.49	1.52056
19.5	1.52779
19.51	1.51529
19.52	1.51957
19.53	1.51464
19.54	1.5176
19.55	1.51003
19.56	1.51398
19.57	1.50904
19.58	1.51727
19.59	1.52056
19.6	1.51135
19.61	1.49983
19.62	1.50904
19.63	1.51266
19.64	1.51299
19.65	1.50937
19.66	1.50806
19.67	1.50181
19.68	1.51266
19.69	1.51792
19.7	1.51661
19.71	1.51266
19.72	1.51003
19.73	1.51135
19.74	1.5176
19.75	1.51562
19.76	1.50444
19.77	1.52056
19.78	1.51727
19.79	1.50148
19.8	1.50411
19.81	1.5199
19.82	1.50806
19.83	1.51694
19.84	1.51628
19.85	1.52089
19.86	1.50411
19.87	1.50937
19.88	1.50575
19.89	1.51135
19.9	1.50378
19.91	1.51398
19.92	1.52352
19.93	1.51628
19.94	1.49983
19.95	1.51792
19.96	1.4995
19.97	1.50279
19.98	1.50542
19.99	1.50608
20	1.50411
20.01	1.50312
20.02	1.5097
20.03	1.52418
20.04	1.50871
20.05	1.4949
20.06	1.49621
20.07	1.5176
20.08	1.52154
20.09	1.52023
20.1	1.51069
20.11	1.51628
20.12	1.51233
20.13	1.50016
20.14	1.50707
20.15	1.51398
20.16	1.512
20.17	1.50608
20.18	1.50542
20.19	1.50806
20.2	1.51266
20.21	1.51332
20.22	1.50542
20.23	1.51299
20.24	1.51628
20.25	1.50575
20.26	1.50477
20.27	1.50871
20.28	1.50608
20.29	1.50444
20.3	1.50148
20.31	1.51562
20.32	1.50904
20.33	1.5176
20.34	1.512
20.35	1.50477
20.36	1.50641
20.37	1.50246
20.38	1.50641
20.39	1.50575
20.4	1.51464
20.41	1.50575
20.42	1.512
20.43	1.4972
20.44	1.51069
20.45	1.50773
20.46	1.49654
20.47	1.51529
20.48	1.50016
20.49	1.50542
20.5	1.5097
20.51	1.51069
20.52	1.51069
20.53	1.50181
20.54	1.50213
20.55	1.51365
20.56	1.50082
20.57	1.50641
20.58	1.52286
20.59	1.50148
20.6	1.50049
20.61	1.50246
20.62	1.50411
20.63	1.50707
20.64	1.49753
20.65	1.5097
20.66	1.51167
20.67	1.51365
20.68	1.5199
20.69	1.51858
20.7	1.50773
20.71	1.50773
20.72	1.50115
20.73	1.5097
20.74	1.51431
20.75	1.5074
20.76	1.50937
20.77	1.51398
20.78	1.51562
20.79	1.50444
20.8	1.50806
20.81	1.51858
20.82	1.51233
20.83	1.51167
20.84	1.49983
20.85	1.50148
20.86	1.51299
20.87	1.50707
20.88	1.5074
20.89	1.51562
20.9	1.51069
20.91	1.50806
20.92	1.51628
20.93	1.49556
20.94	1.50839
20.95	1.51562
20.96	1.50477
20.97	1.50674
20.98	1.51661
20.99	1.50444
21	1.50411
21.01	1.512
21.02	1.50773
21.03	1.5176
21.04	1.50345
21.05	1.49128
21.06	1.49325
21.07	1.50181
21.08	1.51529
21.09	1.50444
21.1	1.50871
21.11	1.4995
21.12	1.50444
21.13	1.5222
21.14	1.51069
21.15	1.51069
21.16	1.50082
21.17	1.50444
21.18	1.512
21.19	1.50181
21.2	1.50049
21.21	1.50904
21.22	1.50707
21.23	1.50542
21.24	1.50608
21.25	1.5074
21.26	1.50246
21.27	1.49424
21.28	1.50839
21.29	1.51135
21.3	1.51398
21.31	1.52154
21.32	1.50608
21.33	1.51167
21.34	1.512
21.35	1.50411
21.36	1.51529
21.37	1.5097
21.38	1.50575
21.39	1.51102
21.4	1.49523
21.41	1.50082
21.42	1.50279
21.43	1.50279
21.44	1.49062
21.45	1.5074
21.46	1.50246
21.47	1.51266
21.48	1.50115
21.49	1.49753
21.5	1.50345
21.51	1.50049
21.52	1.49424
21.53	1.48898
21.54	1.50049
21.55	1.50477
21.56	1.49917
21.57	1.50246
21.58	1.49852
21.59	1.51036
21.6	1.51858
21.61	1.50246
21.62	1.50279
21.63	1.49983
21.64	1.50246
21.65	1.49852
21.66	1.49391
21.67	1.4972
21.68	1.49852
21.69	1.5097
21.7	1.50806
21.71	1.50345
21.72	1.50806
21.73	1.50345
21.74	1.50148
21.75	1.5074
21.76	1.50674
21.77	1.50213
21.78	1.50839
21.79	1.49292
21.8	1.51431
21.81	1.51135
21.82	1.50213
21.83	1.50115
21.84	1.50246
21.85	1.50213
21.86	1.50871
21.87	1.50444
21.88	1.50181
21.89	1.4972
21.9	1.50312
21.91	1.51529
21.92	1.51792
21.93	1.5074
21.94	1.50115
21.95	1.50608
21.96	1.51003
21.97	1.49687
21.98	1.51135
21.99	1.50904
22	1.50641
22.01	1.50937
22.02	1.50542
22.03	1.51233
22.04	1.50707
22.05	1.50641
22.06	1.51398
22.07	1.50871
22.08	1.48931
22.09	1.50345
22.1	1.50477
22.11	1.50148
22.12	1.4926
22.13	1.49325
22.14	1.48437
22.15	1.49983
22.16	1.51167
22.17	1.50871
22.18	1.48108
22.19	1.49819
22.2	1.5051
22.21	1.49588
22.22	1.50016
22.23	1.50148
22.24	1.49819
22.25	1.50641
22.26	1.50411
22.27	1.49852
22.28	1.49391
22.29	1.50213
22.3	1.50773
22.31	1.50608
22.32	1.49786
22.33	1.50246
22.34	1.51431
22.35	1.50773
22.36	1.50213
22.37	1.51299
22.38	1.50016
22.39	1.5097
22.4	1.49852
22.41	1.49523
22.42	1.487
22.43	1.49292
22.44	1.50444
22.45	1.49819
22.46	1.49588
22.47	1.50049
22.48	1.50016
22.49	1.50213
22.5	1.50082
22.51	1.512
22.52	1.49786
22.53	1.51464
22.54	1.50181
22.55	1.49621
22.56	1.5051
22.57	1.50773
22.58	1.50148
22.59	1.4824
22.6	1.49062
22.61	1.49523
22.62	1.48569
22.63	1.49917
22.64	1.49753
22.65	1.49621
22.66	1.4926
22.67	1.49786
22.68	1.50246
22.69	1.4847
22.7	1.49325
22.71	1.50246
22.72	1.49062
22.73	1.49325
22.74	1.50016
22.75	1.51036
22.76	1.50049
22.77	1.48536
22.78	1.50246
22.79	1.50279
22.8	1.50608
22.81	1.49457
22.82	1.49885
22.83	1.49687
22.84	1.4926
22.85	1.49227
22.86	1.49391
22.87	1.50148
22.88	1.49753
22.89	1.50378
22.9	1.50115
22.91	1.50181
22.92	1.50082
22.93	1.50806
22.94	1.50181
22.95	1.48898
22.96	1.49457
22.97	1.50345
22.98	1.49819
22.99	1.50411
23	1.50937
23.01	1.49227
23.02	1.50016
23.03	1.4972
23.04	1.49983
23.05	1.5051
23.06	1.50016
23.07	1.48865
23.08	1.50148
23.09	1.50444
23.1	1.5074
23.11	1.49161
23.12	1.49687
23.13	1.49885
23.14	1.5074
23.15	1.51595
23.16	1.50115
23.17	1.4995
23.18	1.5097
23.19	1.50839
23.2	1.50016
23.21	1.48931
23.22	1.50542
23.23	1.50279
23.24	1.50181
23.25	1.48306
23.26	1.49292
23.27	1.5051
23.28	1.50345
23.29	1.49852
23.3	1.50213
23.31	1.50378
23.32	1.50641
23.33	1.50115
23.34	1.50773
23.35	1.49292
23.36	1.49556
23.37	1.51529
23.38	1.49325
23.39	1.48667
23.4	1.50345
23.41	1.51266
23.42	1.50575
23.43	1.4926
23.44	1.49983
23.45	1.50181
23.46	1.4972
23.47	1.5074
23.48	1.50411
23.49	1.49457
23.5	1.49885
23.51	1.49753
23.52	1.48931
23.53	1.50049
23.54	1.50411
23.55	1.5074
23.56	1.51365
23.57	1.50773
23.58	1.50542
23.59	1.49852
23.6	1.49325
23.61	1.48766
23.62	1.49194
23.63	1.48437
23.64	1.50049
23.65	1.50378
23.66	1.50608
23.67	1.48634
23.68	1.48766
23.69	1.49227
23.7	1.50181
23.71	1.50345
23.72	1.50049
23.73	1.50839
23.74	1.51398
23.75	1.50378
23.76	1.49095
23.77	1.49062
23.78	1.49227
23.79	1.50575
23.8	1.49161
23.81	1.49457
23.82	1.49753
23.83	1.48996
23.84	1.50477
23.85	1.50871
23.86	1.50279
23.87	1.49654
23.88	1.49292
23.89	1.48996
23.9	1.49292
23.91	1.50477
23.92	1.48963
23.93	1.4926
23.94	1.50411
23.95	1.50148
23.96	1.51102
23.97	1.4949
23.98	1.5074
23.99	1.50542
24	1.51233
24.01	1.51496
24.02	1.49424
24.03	1.50279
24.04	1.49325
24.05	1.48865
24.06	1.48898
24.07	1.487
24.08	1.49292
24.09	1.4995
24.1	1.50608
24.11	1.49227
24.12	1.50016
24.13	1.50444
24.14	1.48371
24.15	1.49194
24.16	1.48503
24.17	1.50345
24.18	1.50279
24.19	1.50049
24.2	1.48963
24.21	1.49523
24.22	1.50411
24.23	1.50378
24.24	1.50148
24.25	1.49161
24.26	1.48799
24.27	1.50477
24.28	1.51069
24.29	1.49917
24.3	1.4995
24.31	1.50181
24.32	1.50806
24.33	1.49424
24.34	1.49095
24.35	1.487
24.36	1.49128
24.37	1.49457
24.38	1.4926
24.39	1.4995
24.4	1.49325
24.41	1.48503
24.42	1.49424
24.43	1.49588
24.44	1.49983
24.45	1.49161
24.46	1.4972
24.47	1.5051
24.48	1.48141
24.49	1.49227
24.5	1.4926
24.51	1.49917
24.52	1.50608
24.53	1.51003
24.54	1.49128
24.55	1.50148
24.56	1.4995
24.57	1.50082
24.58	1.49588
24.59	1.50477
24.6	1.49621
24.61	1.50016
24.62	1.49325
24.63	1.48306
24.64	1.48733
24.65	1.49885
24.66	1.49588
24.67	1.49885
24.68	1.50608
24.69	1.49062
24.7	1.49917
24.71	1.49161
24.72	1.49029
24.73	1.49588
24.74	1.48042
24.75	1.4949
24.76	1.50411
24.77	1.5051
24.78	1.49523
24.79	1.49457
24.8	1.48437
24.81	1.48898
24.82	1.50444
24.83	1.4995
24.84	1.49753
24.85	1.48996
24.86	1.4972
24.87	1.49687
24.88	1.51069
24.89	1.49194
24.9	1.48799
24.91	1.49588
24.92	1.48207
24.93	1.4949
24.94	1.48832
24.95	1.49786
24.96	1.51102
24.97	1.49621
24.98	1.50378
24.99	1.4949
25	1.48602
25.01	1.50148
25.02	1.50411
25.03	1.49029
25.04	1.49654
25.05	1.4995
25.06	1.5097
25.07	1.49128
25.08	1.48832
25.09	1.4926
25.1	1.4995
25.11	1.50444
25.12	1.48536
25.13	1.50871
25.14	1.50181
25.15	1.49786
25.16	1.50016
25.17	1.49753
25.18	1.49983
25.19	1.49358
25.2	1.49194
25.21	1.48733
25.22	1.49391
25.23	1.50674
25.24	1.49161
25.25	1.49161
25.26	1.4995
25.27	1.49687
25.28	1.49819
25.29	1.5097
25.3	1.51003
25.31	1.49292
25.32	1.49391
25.33	1.49325
25.34	1.49819
25.35	1.50575
25.36	1.50904
25.37	1.5051
25.38	1.4972
25.39	1.48306
25.4	1.48996
25.41	1.50181
25.42	1.49128
25.43	1.49194
25.44	1.4995
25.45	1.47713
25.46	1.48108
25.47	1.50477
25.48	1.49917
25.49	1.49227
25.5	1.49424
25.51	1.49391
25.52	1.49885
25.53	1.50312
25.54	1.49292
25.55	1.48996
25.56	1.48108
25.57	1.48536
25.58	1.50707
25.59	1.50707
25.6	1.48667
25.61	1.48832
25.62	1.47779
25.63	1.49391
25.64	1.50213
25.65	1.49917
25.66	1.50148
25.67	1.50839
25.68	1.49983
25.69	1.50082
25.7	1.4995
25.71	1.48141
25.72	1.4847
25.73	1.49621
25.74	1.49062
25.75	1.49885
25.76	1.4995
25.77	1.50608
25.78	1.50016
25.79	1.49621
25.8	1.48799
25.81	1.50279
25.82	1.49819
25.83	1.49194
25.84	1.49917
25.85	1.49753
25.86	1.49062
25.87	1.48503
25.88	1.49292
25.89	1.50049
25.9	1.49819
25.91	1.50181
25.92	1.48766
25.93	1.49588
25.94	1.49523
25.95	1.49687
25.96	1.49095
25.97	1.50477
25.98	1.49917
25.99	1.48733
26	1.49095
26.01	1.49062
26.02	1.4824
26.03	1.50213
26.04	1.49128
26.05	1.50279
26.06	1.49885
26.07	1.49325
26.08	1.4972
26.09	1.49358
26.1	1.50542
26.11	1.49325
26.12	1.49227
26.13	1.50279
26.14	1.4995
26.15	1.50444
26.16	1.49128
26.17	1.48963
26.18	1.49917
26.19	1.48898
26.2	1.4949
26.21	1.49424
26.22	1.48536
26.23	1.487
26.24	1.487
26.25	1.48569
26.26	1.49029
26.27	1.49457
26.28	1.49325
26.29	1.50312
26.3	1.4949
26.31	1.48898
26.32	1.49424
26.33	1.48569
26.34	1.4995
26.35	1.4824
26.36	1.49325
26.37	1.50213
26.38	1.49885
26.39	1.48865
26.4	1.47648
26.41	1.4847
26.42	1.48371
26.43	1.4926
26.44	1.49227
26.45	1.49588
26.46	1.49687
26.47	1.49029
26.48	1.48075
26.49	1.48108
26.5	1.49095
26.51	1.48503
26.52	1.48569
26.53	1.48503
26.54	1.49753
26.55	1.48963
26.56	1.48569
26.57	1.49687
26.58	1.48667
26.59	1.49194
26.6	1.49424
26.61	1.48371
26.62	1.49588
26.63	1.50049
26.64	1.49391
26.65	1.487
26.66	1.48141
26.67	1.48931
26.68	1.49292
26.69	1.49194
26.7	1.48569
26.71	1.4926
26.72	1.49194
26.73	1.49391
26.74	1.48536
26.75	1.49194
26.76	1.49753
26.77	1.48602
26.78	1.48963
26.79	1.50411
26.8	1.49556
26.81	1.48865
26.82	1.48602
26.83	1.48766
26.84	1.49556
26.85	1.49358
26.86	1.49292
26.87	1.48306
26.88	1.49983
26.89	1.49983
26.9	1.4824
26.91	1.47878
26.92	1.48075
26.93	1.48108
26.94	1.48963
26.95	1.48273
26.96	1.47319
26.97	1.48338
26.98	1.47483
26.99	1.48536
27	1.49424
27.01	1.49095
27.02	1.49128
27.03	1.49424
27.04	1.48338
27.05	1.50082
27.06	1.48996
27.07	1.4926
27.08	1.48996
27.09	1.487
27.1	1.48766
27.11	1.49424
27.12	1.48569
27.13	1.49292
27.14	1.4847
27.15	1.48042
27.16	1.47845
27.17	1.48273
27.18	1.48634
27.19	1.48931
27.2	1.48569
27.21	1.48667
27.22	1.48207
27.23	1.49029
27.24	1.49095
27.25	1.49325
27.26	1.47944
27.27	1.49917
27.28	1.48931
27.29	1.49325
27.3	1.49161
27.31	1.49062
27.32	1.48569
27.33	1.49588
27.34	1.49786
27.35	1.48404
27.36	1.49753
27.37	1.49621
27.38	1.49095
27.39	1.48996
27.4	1.48009
27.41	1.48832
27.42	1.49687
27.43	1.4926
27.44	1.49194
27.45	1.487
27.46	1.4995
27.47	1.4972
27.48	1.48141
27.49	1.49621
27.5	1.49786
27.51	1.49687
27.52	1.48733
27.53	1.49227
27.54	1.48931
27.55	1.49161
27.56	1.49325
27.57	1.49062
27.58	1.48404
27.59	1.48733
27.6	1.49424
27.61	1.4949
27.62	1.4824
27.63	1.48898
27.64	1.49556
27.65	1.48207
27.66	1.48141
27.67	1.48766
27.68	1.47681
27.69	1.50674
27.7	1.50542
27.71	1.49819
27.72	1.49194
27.73	1.48141
27.74	1.48931
27.75	1.4972
27.76	1.48865
27.77	1.48963
27.78	1.48799
27.79	1.48634
27.8	1.48338
27.81	1.49062
27.82	1.4926
27.83	1.48996
27.84	1.48503
27.85	1.48306
27.86	1.49391
27.87	1.49917
27.88	1.49852
27.89	1.49457
27.9	1.49194
27.91	1.48306
27.92	1.48799
27.93	1.48898
27.94	1.487
27.95	1.48963
27.96	1.48733
27.97	1.48733
27.98	1.487
27.99	1.50378
28	1.48996
28.01	1.47779
28.02	1.48832
28.03	1.49029
28.04	1.48733
28.05	1.48931
28.06	1.48963
28.07	1.48799
28.08	1.48404
28.09	1.48075
28.1	1.48338
28.11	1.48207
28.12	1.48996
28.13	1.50082
28.14	1.48536
28.15	1.48766
28.16	1.48569
28.17	1.48733
28.18	1.48766
28.19	1.47549
28.2	1.49062
28.21	1.5051
28.22	1.48865
28.23	1.4722
28.24	1.47023
28.25	1.48569
28.26	1.48009
28.27	1.50115
28.28	1.48536
28.29	1.48009
28.3	1.49095
28.31	1.48503
28.32	1.48009
28.33	1.49556
28.34	1.48108
28.35	1.49819
28.36	1.49391
28.37	1.47878
28.38	1.48766
28.39	1.49194
28.4	1.48733
28.41	1.47845
28.42	1.48042
28.43	1.4972
28.44	1.49194
28.45	1.4926
28.46	1.49194
28.47	1.49062
28.48	1.48404
28.49	1.48075
28.5	1.4949
28.51	1.48437
28.52	1.48569
28.53	1.48898
28.54	1.48865
28.55	1.50049
28.56	1.4847
28.57	1.48141
28.58	1.48503
28.59	1.47746
28.6	1.48602
28.61	1.49391
28.62	1.49819
28.63	1.487
28.64	1.48634
28.65	1.4926
28.66	1.47977
28.67	1.47779
28.68	1.49194
28.69	1.48141
28.7	1.48141
28.71	1.49029
28.72	1.47977
28.73	1.48898
28.74	1.47977
28.75	1.49194
28.76	1.48404
28.77	1.48931
28.78	1.48075
28.79	1.47286
28.8	1.49062
28.81	1.47582
28.82	1.47977
28.83	1.48174
28.84	1.47812
28.85	1.49621
28.86	1.50575
28.87	1.50246
28.88	1.49095
28.89	1.4847
28.9	1.49161
28.91	1.47746
28.92	1.48832
28.93	1.48963
28.94	1.48141
28.95	1.48207
28.96	1.49128
28.97	1.48437
28.98	1.4949
28.99	1.49523
29	1.49194
29.01	1.49062
29.02	1.48371
29.03	1.48108
29.04	1.4949
29.05	1.49983
29.06	1.49325
29.07	1.4972
29.08	1.48042
29.09	1.48404
29.1	1.47615
29.11	1.48273
29.12	1.48207
29.13	1.49457
29.14	1.48009
29.15	1.48273
29.16	1.49095
29.17	1.48602
29.18	1.48569
29.19	1.49095
29.2	1.48832
29.21	1.48503
29.22	1.48931
29.23	1.48503
29.24	1.49128
29.25	1.47779
29.26	1.48667
29.27	1.49424
29.28	1.48602
29.29	1.4824
29.3	1.47911
29.31	1.48437
29.32	1.48733
29.33	1.48832
29.34	1.48141
29.35	1.4926
29.36	1.49358
29.37	1.49194
29.38	1.49621
29.39	1.49391
29.4	1.49227
29.41	1.48996
29.42	1.48207
29.43	1.47779
29.44	1.48996
29.45	1.49161
29.46	1.48634
29.47	1.49161
29.48	1.49062
29.49	1.49161
29.5	1.50181
29.51	1.47944
29.52	1.47483
29.53	1.47779
29.54	1.48404
29.55	1.46858
29.56	1.49095
29.57	1.48503
29.58	1.47713
29.59	1.48503
29.6	1.48075
29.61	1.48338
29.62	1.48503
29.63	1.48766
29.64	1.47944
29.65	1.48042
29.66	1.47911
29.67	1.49227
29.68	1.48009
29.69	1.47582
29.7	1.47977
29.71	1.48338
29.72	1.4847
29.73	1.47878
29.74	1.47977
29.75	1.48207
29.76	1.47911
29.77	1.48075
29.78	1.48273
29.79	1.48733
29.8	1.49391
29.81	1.48667
29.82	1.49095
29.83	1.49194
29.84	1.49227
29.85	1.47088
29.86	1.47352
29.87	1.48931
29.88	1.47648
29.89	1.4949
29.9	1.49128
29.91	1.49128
29.92	1.49325
29.93	1.49786
29.94	1.487
29.95	1.47055
29.96	1.48174
29.97	1.48371
29.98	1.48865
29.99	1.47779
30	1.49062
