"BIO-KINE ASCII FILE"
"_COMMENT"	"MOS-500 Spectrometer"
"_COMMENT"	"Kinetics measurement"
"_COMMENT"	"Y Unit : Volt,  X Unit : s"
"_COMMENT"	"Excitation wavelength : 380 nm"
"_COMMENT"	"Fentes bandwidth =  1 nm"
"_COMMENT"	"HV= 1000V"
"_COMMENT"	"Timebase  1 =  .01 s   5001 pts"
"_SFM"	"SFM-400 /S  Advanced mode"
"_SFM"	"Ratio : S1: 2.5, S2: 0, S3: 0, S4: 1"
"_SFM"	"Content : S1: , S2: , S3: , S4:"
"_SFM"	"Concentration : S1: , S2: , S3: , S4:"
"_SFM"	"Total volume : 209 µl  Flow : 3.5 mL/s"
"_SFM"	"Acquisition start :  10 ms before stop"
"_SFM"	"cuve=FC-15, s1=10 ml , s2=10 ml , s3=10 ml , s4=1.9 ml"
"_UNITX"	"s"
"_UNITY"	"Volt"
"_DELTAX"	0
"_DATA"
1e-300	4.48019
0.01	4.44796
0.02	4.48973
0.03	4.59697
0.04	4.65224
0.05	4.70191
0.06	4.75948
0.07	4.76408
0.08	4.75191
0.09	4.78481
0.1	4.75454
0.11	4.79237
0.12	4.80356
0.13	4.80455
0.14	4.8131
0.15	4.82659
0.16	4.81047
0.17	4.84336
0.18	4.80126
0.19	4.82494
0.2	4.80323
0.21	4.83909
0.22	4.81573
0.23	4.82066
0.24	4.88152
0.25	4.83941
0.26	4.82988
0.27	4.83974
0.28	4.79007
0.29	4.84895
0.3	4.8404
0.31	4.8529
0.32	4.79139
0.33	4.76869
0.34	4.77527
0.35	4.80158
0.36	4.77
0.37	4.83415
0.38	4.8427
0.39	4.8052
0.4	4.82461
0.41	4.79566
0.42	4.78185
0.43	4.81145
0.44	4.75389
0.45	4.79172
0.46	4.80191
0.47	4.80718
0.48	4.78843
0.49	4.78152
0.5	4.81409
0.51	4.7983
0.52	4.77132
0.53	4.78283
0.54	4.79797
0.55	4.8006
0.56	4.79139
0.57	4.80685
0.58	4.76112
0.59	4.76145
0.6	4.80191
0.61	4.7779
0.62	4.79106
0.63	4.79698
0.64	4.8006
0.65	4.79073
0.66	4.77494
0.67	4.77724
0.68	4.75224
0.69	4.77099
0.7	4.76244
0.71	4.78908
0.72	4.79533
0.73	4.80224
0.74	4.76573
0.75	4.75882
0.76	4.77625
0.77	4.78612
0.78	4.78514
0.79	4.8108
0.8	4.77889
0.81	4.77856
0.82	4.75224
0.83	4.77099
0.84	4.77264
0.85	4.78974
0.86	4.75948
0.87	4.74632
0.88	4.7052
0.89	4.75125
0.9	4.73086
0.91	4.75487
0.92	4.76211
0.93	4.71408
0.94	4.74928
0.95	4.72296
0.96	4.72362
0.97	4.76441
0.98	4.76704
0.99	4.73711
1	4.77362
1.01	4.74369
1.02	4.73283
1.03	4.75718
1.04	4.72823
1.05	4.73415
1.06	4.7381
1.07	4.7552
1.08	4.7404
1.09	4.74402
1.1	4.7029
1.11	4.68349
1.12	4.69698
1.13	4.73678
1.14	4.7154
1.15	4.72296
1.16	4.72724
1.17	4.74303
1.18	4.7052
1.19	4.74764
1.2	4.66901
1.21	4.67954
1.22	4.72066
1.23	4.71342
1.24	4.70948
1.25	4.75224
1.26	4.71836
1.27	4.71375
1.28	4.72921
1.29	4.67494
1.3	4.71145
1.31	4.68053
1.32	4.68053
1.33	4.68678
1.34	4.69796
1.35	4.73152
1.36	4.71277
1.37	4.7256
1.38	4.74106
1.39	4.74961
1.4	4.67329
1.41	4.69961
1.42	4.68645
1.43	4.67461
1.44	4.69862
1.45	4.68842
1.46	4.67592
1.47	4.68711
1.48	4.68711
1.49	4.68974
1.5	4.6677
1.51	4.72263
1.52	4.66342
1.53	4.67494
1.54	4.64763
1.55	4.67066
1.56	4.66869
1.57	4.67987
1.58	4.65882
1.59	4.67
1.6	4.6473
1.61	4.66803
1.62	4.67625
1.63	4.65388
1.64	4.63447
1.65	4.6825
1.66	4.67724
1.67	4.66671
1.68	4.64369
1.69	4.69829
1.7	4.71606
1.71	4.65026
1.72	4.63842
1.73	4.69632
1.74	4.67329
1.75	4.68119
1.76	4.66605
1.77	4.65882
1.78	4.64599
1.79	4.61638
1.8	4.695
1.81	4.65322
1.82	4.63941
1.83	4.63118
1.84	4.61079
1.85	4.64467
1.86	4.66605
1.87	4.66869
1.88	4.64566
1.89	4.6473
1.9	4.65619
1.91	4.6552
1.92	4.64237
1.93	4.63053
1.94	4.64007
1.95	4.60882
1.96	4.62888
1.97	4.64796
1.98	4.64336
1.99	4.63316
2	4.63283
2.01	4.65553
2.02	4.63151
2.03	4.59599
2.04	4.57296
2.05	4.6098
2.06	4.63941
2.07	4.60849
2.08	4.63546
2.09	4.61342
2.1	4.62329
2.11	4.62888
2.12	4.57921
2.13	4.57625
2.14	4.59072
2.15	4.64303
2.16	4.60059
2.17	4.61934
2.18	4.62066
2.19	4.6598
2.2	4.6404
2.21	4.61342
2.22	4.64171
2.23	4.6075
2.24	4.64533
2.25	4.63283
2.26	4.61375
2.27	4.62461
2.28	4.66737
2.29	4.58381
2.3	4.6325
2.31	4.62164
2.32	4.59007
2.33	4.60191
2.34	4.62592
2.35	4.62954
2.36	4.61671
2.37	4.62296
2.38	4.56243
2.39	4.5723
2.4	4.58118
2.41	4.59632
2.42	4.58579
2.43	4.58085
2.44	4.58842
2.45	4.55322
2.46	4.53217
2.47	4.58875
2.48	4.62724
2.49	4.57724
2.5	4.59138
2.51	4.57625
2.52	4.57691
2.53	4.55947
2.54	4.58151
2.55	4.59335
2.56	4.58053
2.57	4.5621
2.58	4.56079
2.59	4.5427
2.6	4.55125
2.61	4.60257
2.62	4.59895
2.63	4.545
2.64	4.57756
2.65	4.57756
2.66	4.52987
2.67	4.5552
2.68	4.53184
2.69	4.58743
2.7	4.55487
2.71	4.56802
2.72	4.54467
2.73	4.58151
2.74	4.58447
2.75	4.57822
2.76	4.56967
2.77	4.57296
2.78	4.58809
2.79	4.5598
2.8	4.55552
2.81	4.54171
2.82	4.57197
2.83	4.58349
2.84	4.56704
2.85	4.56441
2.86	4.54368
2.87	4.55421
2.88	4.54434
2.89	4.52954
2.9	4.55125
2.91	4.54993
2.92	4.56276
2.93	4.53118
2.94	4.53579
2.95	4.53546
2.96	4.56441
2.97	4.57395
2.98	4.58974
2.99	4.55585
3	4.56441
3.01	4.56835
3.02	4.54467
3.03	4.53381
3.04	4.51802
3.05	4.52723
3.06	4.55026
3.07	4.55223
3.08	4.53809
3.09	4.51967
3.1	4.51769
3.11	4.55816
3.12	4.57724
3.13	4.55914
3.14	4.5496
3.15	4.55816
3.16	4.53447
3.17	4.54401
3.18	4.51704
3.19	4.49072
3.2	4.5223
3.21	4.53546
3.22	4.52131
3.23	4.54072
3.24	4.55322
3.25	4.51079
3.26	4.52625
3.27	4.51704
3.28	4.57099
3.29	4.56474
3.3	4.52855
3.31	4.55388
3.32	4.52033
3.33	4.5371
3.34	4.53118
3.35	4.55158
3.36	4.50059
3.37	4.52822
3.38	4.59401
3.39	4.53414
3.4	4.54664
3.41	4.53283
3.42	4.49138
3.43	4.50684
3.44	4.50783
3.45	4.49598
3.46	4.53085
3.47	4.55322
3.48	4.54401
3.49	4.54664
3.5	4.50059
3.51	4.51375
3.52	4.50684
3.53	4.54598
3.54	4.5121
3.55	4.52
3.56	4.49467
3.57	4.52921
3.58	4.50486
3.59	4.53776
3.6	4.52592
3.61	4.55585
3.62	4.55322
3.63	4.50223
3.64	4.50026
3.65	4.47921
3.66	4.49533
3.67	4.52427
3.68	4.51079
3.69	4.49829
3.7	4.51342
3.71	4.44072
3.72	4.46309
3.73	4.49105
3.74	4.46407
3.75	4.45782
3.76	4.50848
3.77	4.50454
3.78	4.44894
3.79	4.47065
3.8	4.46506
3.81	4.49039
3.82	4.48414
3.83	4.45519
3.84	4.45848
3.85	4.49335
3.86	4.47921
3.87	4.45486
3.88	4.48348
3.89	4.45256
3.9	4.47427
3.91	4.48184
3.92	4.46144
3.93	4.47986
3.94	4.49368
3.95	4.50125
3.96	4.42328
3.97	4.45717
3.98	4.50651
3.99	4.49368
4	4.46078
4.01	4.44236
4.02	4.46276
4.03	4.48381
4.04	4.47296
4.05	4.50717
4.06	4.48842
4.07	4.47164
4.08	4.47526
4.09	4.5144
4.1	4.43348
4.11	4.4519
4.12	4.46078
4.13	4.45453
4.14	4.4621
4.15	4.45256
4.16	4.46375
4.17	4.45223
4.18	4.47427
4.19	4.47723
4.2	4.44467
4.21	4.43677
4.22	4.4519
4.23	4.4292
4.24	4.47888
4.25	4.47197
4.26	4.40881
4.27	4.41144
4.28	4.43842
4.29	4.44006
4.3	4.48644
4.31	4.48348
4.32	4.42657
4.33	4.46177
4.34	4.4371
4.35	4.44105
4.36	4.40322
4.37	4.47822
4.38	4.46769
4.39	4.45881
4.4	4.40026
4.41	4.48085
4.42	4.46802
4.43	4.43348
4.44	4.46835
4.45	4.44894
4.46	4.40026
4.47	4.40716
4.48	4.43809
4.49	4.45552
4.5	4.44105
4.51	4.46868
4.52	4.48611
4.53	4.45947
4.54	4.45815
4.55	4.45388
4.56	4.4394
4.57	4.44401
4.58	4.4292
4.59	4.40289
4.6	4.4121
4.61	4.42295
4.62	4.4167
4.63	4.42065
4.64	4.42789
4.65	4.47986
4.66	4.41605
4.67	4.38545
4.68	4.42888
4.69	4.45914
4.7	4.43019
4.71	4.45388
4.72	4.42723
4.73	4.41934
4.74	4.36868
4.75	4.43842
4.76	4.41276
4.77	4.40026
4.78	4.3871
4.79	4.43118
4.8	4.40322
4.81	4.41802
4.82	4.41802
4.83	4.43513
4.84	4.39795
4.85	4.41407
4.86	4.40716
4.87	4.41177
4.88	4.3871
4.89	4.39532
4.9	4.39203
4.91	4.41605
4.92	4.39269
4.93	4.40881
4.94	4.43151
4.95	4.37789
4.96	4.3667
4.97	4.41703
4.98	4.4167
4.99	4.40881
5	4.40519
5.01	4.38019
5.02	4.37361
5.03	4.38151
5.04	4.3917
5.05	4.38578
5.06	4.39532
5.07	4.35519
5.08	4.4223
5.09	4.40552
5.1	4.39993
5.11	4.41341
5.12	4.38216
5.13	4.41966
5.14	4.44203
5.15	4.42032
5.16	4.40519
5.17	4.38743
5.18	4.40091
5.19	4.40914
5.2	4.4019
5.21	4.40026
5.22	4.38611
5.23	4.39894
5.24	4.3496
5.25	4.38644
5.26	4.41374
5.27	4.35157
5.28	4.33841
5.29	4.36966
5.3	4.37328
5.31	4.35618
5.32	4.3973
5.33	4.37065
5.34	4.35387
5.35	4.3871
5.36	4.38677
5.37	4.38249
5.38	4.37032
5.39	4.37361
5.4	4.38216
5.41	4.36078
5.42	4.34532
5.43	4.35223
5.44	4.33381
5.45	4.34795
5.46	4.38019
5.47	4.36308
5.48	4.38743
5.49	4.37624
5.5	4.38381
5.51	4.39697
5.52	4.37098
5.53	4.41309
5.54	4.40059
5.55	4.41506
5.56	4.38776
5.57	4.40618
5.58	4.36276
5.59	4.33743
5.6	4.37657
5.61	4.35782
5.62	4.37723
5.63	4.36802
5.64	4.39894
5.65	4.34631
5.66	4.32558
5.67	4.34072
5.68	4.34697
5.69	4.35322
5.7	4.37427
5.71	4.36012
5.72	4.35881
5.73	4.34993
5.74	4.35058
5.75	4.39302
5.76	4.38874
5.77	4.35519
5.78	4.37789
5.79	4.37558
5.8	4.3496
5.81	4.37624
5.82	4.38611
5.83	4.36966
5.84	4.35124
5.85	4.3417
5.86	4.32229
5.87	4.36736
5.88	4.36933
5.89	4.31177
5.9	4.30354
5.91	4.3644
5.92	4.34302
5.93	4.32361
5.94	4.33775
5.95	4.38677
5.96	4.36341
5.97	4.33578
5.98	4.31999
5.99	4.35552
6	4.39269
6.01	4.35025
6.02	4.3542
6.03	4.34729
6.04	4.3121
6.05	4.36637
6.06	4.34795
6.07	4.35091
6.08	4.36506
6.09	4.36276
6.1	4.34795
6.11	4.36736
6.12	4.31736
6.13	4.32229
6.14	4.34861
6.15	4.32821
6.16	4.35585
6.17	4.32098
6.18	4.30782
6.19	4.35716
6.2	4.29006
6.21	4.33381
6.22	4.34828
6.23	4.34532
6.24	4.32756
6.25	4.32558
6.26	4.33578
6.27	4.32525
6.28	4.31835
6.29	4.32164
6.3	4.32032
6.31	4.32065
6.32	4.35025
6.33	4.31539
6.34	4.29927
6.35	4.36802
6.36	4.37394
6.37	4.33841
6.38	4.32953
6.39	4.33348
6.4	4.34137
6.41	4.31571
6.42	4.33249
6.43	4.33578
6.44	4.35486
6.45	4.34466
6.46	4.33841
6.47	4.33282
6.48	4.31012
6.49	4.3269
6.5	4.3292
6.51	4.32295
6.52	4.29762
6.53	4.33545
6.54	4.31242
6.55	4.32065
6.56	4.31604
6.57	4.32295
6.58	4.32229
6.59	4.29663
6.6	4.29466
6.61	4.27788
6.62	4.3042
6.63	4.36111
6.64	4.33775
6.65	4.34006
6.66	4.3019
6.67	4.32887
6.68	4.32986
6.69	4.3042
6.7	4.27492
6.71	4.29499
6.72	4.30157
6.73	4.31341
6.74	4.27657
6.75	4.2996
6.76	4.29532
6.77	4.29795
6.78	4.30946
6.79	4.31111
6.8	4.3042
6.81	4.30946
6.82	4.32558
6.83	4.32196
6.84	4.30321
6.85	4.28644
6.86	4.33282
6.87	4.30453
6.88	4.31111
6.89	4.33743
6.9	4.28019
6.91	4.32624
6.92	4.29367
6.93	4.28808
6.94	4.26571
6.95	4.29992
6.96	4.32756
6.97	4.30223
6.98	4.31374
6.99	4.34598
7	4.29006
7.01	4.32361
7.02	4.31736
7.03	4.27657
7.04	4.30058
7.05	4.2815
7.06	4.28479
7.07	4.30848
7.08	4.31111
7.09	4.30256
7.1	4.29137
7.11	4.30683
7.12	4.30387
7.13	4.27492
7.14	4.25255
7.15	4.30782
7.16	4.31341
7.17	4.27328
7.18	4.29927
7.19	4.28874
7.2	4.26966
7.21	4.29894
7.22	4.29828
7.23	4.28019
7.24	4.31802
7.25	4.29335
7.26	4.28479
7.27	4.28677
7.28	4.32394
7.29	4.3042
7.3	4.29631
7.31	4.27229
7.32	4.29927
7.33	4.28578
7.34	4.319
7.35	4.28644
7.36	4.24992
7.37	4.26999
7.38	4.2644
7.39	4.27394
7.4	4.28282
7.41	4.30256
7.42	4.29861
7.43	4.29071
7.44	4.29071
7.45	4.25815
7.46	4.26867
7.47	4.22887
7.48	4.24071
7.49	4.26242
7.5	4.25716
7.51	4.29729
7.52	4.28249
7.53	4.26867
7.54	4.23775
7.55	4.24038
7.56	4.28052
7.57	4.27657
7.58	4.29598
7.59	4.29631
7.6	4.23676
7.61	4.25387
7.62	4.23479
7.63	4.26604
7.64	4.26571
7.65	4.28282
7.66	4.30683
7.67	4.32427
7.68	4.2996
7.69	4.26966
7.7	4.26078
7.71	4.30749
7.72	4.27098
7.73	4.27196
7.74	4.29828
7.75	4.26604
7.76	4.27032
7.77	4.28512
7.78	4.2644
7.79	4.23676
7.8	4.25716
7.81	4.26571
7.82	4.21045
7.83	4.25848
7.84	4.27065
7.85	4.2917
7.86	4.27953
7.87	4.28512
7.88	4.25321
7.89	4.26111
7.9	4.26571
7.91	4.26111
7.92	4.26012
7.93	4.219
7.94	4.28084
7.95	4.26275
7.96	4.2769
7.97	4.26538
7.98	4.25387
7.99	4.25058
8	4.244
8.01	4.27657
8.02	4.26966
8.03	4.23545
8.04	4.26473
8.05	4.23545
8.06	4.23117
8.07	4.2917
8.08	4.26012
8.09	4.24236
8.1	4.23644
8.11	4.23282
8.12	4.22394
8.13	4.26999
8.14	4.28709
8.15	4.21801
8.16	4.2417
8.17	4.24861
8.18	4.22821
8.19	4.26242
8.2	4.25223
8.21	4.24466
8.22	4.26966
8.23	4.27229
8.24	4.23479
8.25	4.22788
8.26	4.27854
8.27	4.27525
8.28	4.21834
8.29	4.23051
8.3	4.22032
8.31	4.23282
8.32	4.27328
8.33	4.23051
8.34	4.2213
8.35	4.21867
8.36	4.21176
8.37	4.26571
8.38	4.24992
8.39	4.21571
8.4	4.24236
8.41	4.22426
8.42	4.21637
8.43	4.24663
8.44	4.22953
8.45	4.2519
8.46	4.25091
8.47	4.22624
8.48	4.2292
8.49	4.23117
8.5	4.22821
8.51	4.21012
8.52	4.22426
8.53	4.24038
8.54	4.21571
8.55	4.19104
8.56	4.23578
8.57	4.22163
8.58	4.23249
8.59	4.22229
8.6	4.24959
8.61	4.19861
8.62	4.22821
8.63	4.24598
8.64	4.22953
8.65	4.26505
8.66	4.23874
8.67	4.19334
8.68	4.20222
8.69	4.2213
8.7	4.26407
8.71	4.24038
8.72	4.25025
8.73	4.24861
8.74	4.24137
8.75	4.24828
8.76	4.23183
8.77	4.20913
8.78	4.21143
8.79	4.21637
8.8	4.22196
8.81	4.22722
8.82	4.24071
8.83	4.22657
8.84	4.24696
8.85	4.20486
8.86	4.22295
8.87	4.2167
8.88	4.24532
8.89	4.20058
8.9	4.22591
8.91	4.26407
8.92	4.21736
8.93	4.24696
8.94	4.2213
8.95	4.1917
8.96	4.27065
8.97	4.24499
8.98	4.22065
8.99	4.20683
9	4.2088
9.01	4.19433
9.02	4.18939
9.03	4.20058
9.04	4.19959
9.05	4.22328
9.06	4.22788
9.07	4.19005
9.08	4.20979
9.09	4.23216
9.1	4.23479
9.11	4.21736
9.12	4.23479
9.13	4.21045
9.14	4.19433
9.15	4.23249
9.16	4.17985
9.17	4.22295
9.18	4.22492
9.19	4.19104
9.2	4.21538
9.21	4.20058
9.22	4.22657
9.23	4.22492
9.24	4.21308
9.25	4.22229
9.26	4.23545
9.27	4.19696
9.28	4.19795
9.29	4.18117
9.3	4.1917
9.31	4.21867
9.32	4.25913
9.33	4.20321
9.34	4.20189
9.35	4.18874
9.36	4.21933
9.37	4.20321
9.38	4.1565
9.39	4.19992
9.4	4.20453
9.41	4.21966
9.42	4.16242
9.43	4.22426
9.44	4.22065
9.45	4.21867
9.46	4.21045
9.47	4.219
9.48	4.17985
9.49	4.2088
9.5	4.18282
9.51	4.15617
9.52	4.20189
9.53	4.19038
9.54	4.20913
9.55	4.18972
9.56	4.21012
9.57	4.23249
9.58	4.19795
9.59	4.17064
9.6	4.18413
9.61	4.169
9.62	4.19104
9.63	4.19597
9.64	4.19104
9.65	4.16604
9.66	4.21933
9.67	4.17295
9.68	4.2269
9.69	4.21571
9.7	4.16078
9.71	4.19828
9.72	4.18874
9.73	4.20716
9.74	4.22755
9.75	4.1792
9.76	4.20157
9.77	4.19926
9.78	4.21078
9.79	4.17492
9.8	4.18249
9.81	4.22328
9.82	4.1667
9.83	4.14038
9.84	4.18413
9.85	4.20157
9.86	4.14827
9.87	4.20124
9.88	4.14795
9.89	4.20387
9.9	4.21111
9.91	4.1963
9.92	4.17097
9.93	4.18413
9.94	4.15584
9.95	4.16374
9.96	4.18709
9.97	4.16472
9.98	4.18972
9.99	4.18874
10	4.19236
10.01	4.19959
10.02	4.15847
10.03	4.21045
10.04	4.17393
10.05	4.15551
10.06	4.19334
10.07	4.2338
10.08	4.18775
10.09	4.18545
10.1	4.194
10.11	4.19367
10.12	4.20815
10.13	4.19893
10.14	4.1736
10.15	4.17295
10.16	4.19828
10.17	4.18314
10.18	4.17328
10.19	4.17196
10.2	4.19663
10.21	4.20387
10.22	4.20979
10.23	4.18775
10.24	4.20189
10.25	4.18117
10.26	4.18183
10.27	4.16768
10.28	4.16275
10.29	4.13742
10.3	4.16703
10.31	4.19564
10.32	4.20157
10.33	4.14564
10.34	4.18709
10.35	4.16012
10.36	4.15683
10.37	4.18347
10.38	4.18742
10.39	4.17985
10.4	4.17262
10.41	4.18413
10.42	4.17393
10.43	4.18249
10.44	4.16768
10.45	4.16801
10.46	4.16078
10.47	4.21111
10.48	4.14597
10.49	4.17722
10.5	4.15189
10.51	4.18084
10.52	4.15255
10.53	4.14466
10.54	4.14926
10.55	4.19959
10.56	4.15354
10.57	4.15222
10.58	4.16143
10.59	4.13808
10.6	4.16966
10.61	4.20157
10.62	4.16966
10.63	4.17657
10.64	4.21736
10.65	4.13413
10.66	4.16209
10.67	4.18413
10.68	4.15946
10.69	4.13545
10.7	4.2042
10.71	4.17591
10.72	4.13676
10.73	4.14499
10.74	4.13775
10.75	4.2144
10.76	4.16604
10.77	4.17985
10.78	4.16604
10.79	4.16176
10.8	4.15255
10.81	4.15847
10.82	4.15617
10.83	4.14729
10.84	4.14762
10.85	4.1417
10.86	4.16472
10.87	4.16867
10.88	4.13051
10.89	4.16999
10.9	4.18742
10.91	4.19071
10.92	4.15354
10.93	4.16242
10.94	4.14301
10.95	4.1667
10.96	4.18051
10.97	4.20387
10.98	4.14663
10.99	4.13577
11	4.13051
11.01	4.15716
11.02	4.14104
11.03	4.14762
11.04	4.17788
11.05	4.12558
11.06	4.16209
11.07	4.1611
11.08	4.16045
11.09	4.16341
11.1	4.1486
11.11	4.16143
11.12	4.1361
11.13	4.17887
11.14	4.16176
11.15	4.1111
11.16	4.11077
11.17	4.1588
11.18	4.15749
11.19	4.14202
11.2	4.1667
11.21	4.10222
11.22	4.15946
11.23	4.1542
11.24	4.15749
11.25	4.16867
11.26	4.16637
11.27	4.17624
11.28	4.14235
11.29	4.15617
11.3	4.16604
11.31	4.1542
11.32	4.17229
11.33	4.17525
11.34	4.16439
11.35	4.1611
11.36	4.16209
11.37	4.15354
11.38	4.18314
11.39	4.16045
11.4	4.13742
11.41	4.17196
11.42	4.13874
11.43	4.15124
11.44	4.13676
11.45	4.13742
11.46	4.16867
11.47	4.18479
11.48	4.14433
11.49	4.14663
11.5	4.14235
11.51	4.11768
11.52	4.13018
11.53	4.12064
11.54	4.11735
11.55	4.1361
11.56	4.1338
11.57	4.13841
11.58	4.16439
11.59	4.14499
11.6	4.14235
11.61	4.11209
11.62	4.13018
11.63	4.19038
11.64	4.10913
11.65	4.12031
11.66	4.11472
11.67	4.14466
11.68	4.13709
11.69	4.13413
11.7	4.18972
11.71	4.15091
11.72	4.15847
11.73	4.16637
11.74	4.14104
11.75	4.10847
11.76	4.14926
11.77	4.14268
11.78	4.14367
11.79	4.13775
11.8	4.17426
11.81	4.12854
11.82	4.13643
11.83	4.15551
11.84	4.1338
11.85	4.14005
11.86	4.12229
11.87	4.11538
11.88	4.1338
11.89	4.14597
11.9	4.11308
11.91	4.12064
11.92	4.17097
11.93	4.15979
11.94	4.16209
11.95	4.17821
11.96	4.15025
11.97	4.15387
11.98	4.15124
11.99	4.12755
12	4.14466
12.01	4.13939
12.02	4.13939
12.03	4.13545
12.04	4.13577
12.05	4.17624
12.06	4.12525
12.07	4.13676
12.08	4.15518
12.09	4.18413
12.1	4.16341
12.11	4.15683
12.12	4.13281
12.13	4.11998
12.14	4.11077
12.15	4.11077
12.16	4.12426
12.17	4.119
12.18	4.10189
12.19	4.11604
12.2	4.11308
12.21	4.09235
12.22	4.13577
12.23	4.12327
12.24	4.11801
12.25	4.14663
12.26	4.17163
12.27	4.18051
12.28	4.13018
12.29	4.13347
12.3	4.13018
12.31	4.14071
12.32	4.12327
12.33	4.13808
12.34	4.17229
12.35	4.17459
12.36	4.13545
12.37	4.12623
12.38	4.13775
12.39	4.14005
12.4	4.11176
12.41	4.11669
12.42	4.10847
12.43	4.09104
12.44	4.12031
12.45	4.13347
12.46	4.13347
12.47	4.09597
12.48	4.13248
12.49	4.15485
12.5	4.12327
12.51	4.10518
12.52	4.11998
12.53	4.11735
12.54	4.11505
12.55	4.09005
12.56	4.12229
12.57	4.12854
12.58	4.1861
12.59	4.16012
12.6	4.15091
12.61	4.12525
12.62	4.1213
12.63	4.11209
12.64	4.15091
12.65	4.14926
12.66	4.12229
12.67	4.12031
12.68	4.11308
12.69	4.12097
12.7	4.14531
12.71	4.15781
12.72	4.13347
12.73	4.12788
12.74	4.14499
12.75	4.12788
12.76	4.1213
12.77	4.11505
12.78	4.10716
12.79	4.11637
12.8	4.16341
12.81	4.14564
12.82	4.15749
12.83	4.15387
12.84	4.14137
12.85	4.07229
12.86	4.10617
12.87	4.11505
12.88	4.07393
12.89	4.11341
12.9	4.1486
12.91	4.1338
12.92	4.13084
12.93	4.1463
12.94	4.12887
12.95	4.16735
12.96	4.16012
12.97	4.11998
12.98	4.15387
12.99	4.09202
13	4.09367
13.01	4.12229
13.02	4.13643
13.03	4.13347
13.04	4.09071
13.05	4.11308
13.06	4.10946
13.07	4.13018
13.08	4.1236
13.09	4.11933
13.1	4.1065
13.11	4.12755
13.12	4.0588
13.13	4.15551
13.14	4.13446
13.15	4.10255
13.16	4.12295
13.17	4.08709
13.18	4.08906
13.19	4.07952
13.2	4.11998
13.21	4.13051
13.22	4.08808
13.23	4.11998
13.24	4.14762
13.25	4.11735
13.26	4.10419
13.27	4.10748
13.28	4.11044
13.29	4.08446
13.3	4.11472
13.31	4.11933
13.32	4.10551
13.33	4.12459
13.34	4.1611
13.35	4.13281
13.36	4.12558
13.37	4.10716
13.38	4.09531
13.39	4.11044
13.4	4.11867
13.41	4.11176
13.42	4.12985
13.43	4.0963
13.44	4.11637
13.45	4.12229
13.46	4.11373
13.47	4.10419
13.48	4.11439
13.49	4.10946
13.5	4.11077
13.51	4.12952
13.52	4.10748
13.53	4.11604
13.54	4.06735
13.55	4.13874
13.56	4.11308
13.57	4.10716
13.58	4.09926
13.59	4.1213
13.6	4.16571
13.61	4.14202
13.62	4.13479
13.63	4.09169
13.64	4.11209
13.65	4.094
13.66	4.11439
13.67	4.13183
13.68	4.12426
13.69	4.08215
13.7	4.15584
13.71	4.13084
13.72	4.08775
13.73	4.05682
13.74	4.10222
13.75	4.1065
13.76	4.1065
13.77	4.12262
13.78	4.09564
13.79	4.09465
13.8	4.11538
13.81	4.07327
13.82	4.08248
13.83	4.09531
13.84	4.13643
13.85	4.11998
13.86	4.07031
13.87	4.07755
13.88	4.09762
13.89	4.11044
13.9	4.09433
13.91	4.12327
13.92	4.14071
13.93	4.12229
13.94	4.10518
13.95	4.09169
13.96	4.09663
13.97	4.11702
13.98	4.12196
13.99	4.11275
14	4.09071
14.01	4.09762
14.02	4.13314
14.03	4.11176
14.04	4.12821
14.05	4.08873
14.06	4.09663
14.07	4.13248
14.08	4.10716
14.09	4.08742
14.1	4.11308
14.11	4.10354
14.12	4.07985
14.13	4.11669
14.14	4.07919
14.15	4.10617
14.16	4.08413
14.17	4.09268
14.18	4.10814
14.19	4.10321
14.2	4.06307
14.21	4.08215
14.22	4.09959
14.23	4.11867
14.24	4.10452
14.25	4.14104
14.26	4.10419
14.27	4.09498
14.28	4.09169
14.29	4.08775
14.3	4.11406
14.31	4.10551
14.32	4.08775
14.33	4.09663
14.34	4.08939
14.35	4.07788
14.36	4.069
14.37	4.10551
14.38	4.0759
14.39	4.09005
14.4	4.12623
14.41	4.07689
14.42	4.09367
14.43	4.09959
14.44	4.06669
14.45	4.09268
14.46	4.08117
14.47	4.09597
14.48	4.05222
14.49	4.07558
14.5	4.10913
14.51	4.09038
14.52	4.09235
14.53	4.08775
14.54	4.12722
14.55	4.11768
14.56	4.11505
14.57	4.06801
14.58	4.10255
14.59	4.10354
14.6	4.10156
14.61	4.07722
14.62	4.08084
14.63	4.05025
14.64	4.10123
14.65	4.08873
14.66	4.10683
14.67	4.07755
14.68	4.09498
14.69	4.10847
14.7	4.1009
14.71	4.07426
14.72	4.06867
14.73	4.10847
14.74	4.09268
14.75	4.10025
14.76	4.0759
14.77	4.11834
14.78	4.13479
14.79	4.07985
14.8	4.07097
14.81	4.08972
14.82	4.07294
14.83	4.0815
14.84	4.0611
14.85	4.10551
14.86	4.10913
14.87	4.07788
14.88	4.06472
14.89	4.07755
14.9	4.11143
14.91	4.12196
14.92	4.09367
14.93	4.11044
14.94	4.0713
14.95	4.08643
14.96	4.10025
14.97	4.08544
14.98	4.08281
14.99	4.04761
15	4.07985
15.01	4.10946
15.02	4.12558
15.03	4.07097
15.04	4.069
15.05	4.10683
15.06	4.10781
15.07	4.09827
15.08	4.06538
15.09	4.08314
15.1	4.05386
15.11	4.07064
15.12	4.08314
15.13	4.08643
15.14	4.11472
15.15	4.07755
15.16	4.09729
15.17	4.09334
15.18	4.09433
15.19	4.11834
15.2	4.06801
15.21	4.05584
15.22	4.07294
15.23	4.08511
15.24	4.08051
15.25	4.10748
15.26	4.10683
15.27	4.1111
15.28	4.06965
15.29	4.07722
15.3	4.06275
15.31	4.10288
15.32	4.10354
15.33	4.069
15.34	4.07854
15.35	4.07656
15.36	4.094
15.37	4.09268
15.38	4.07426
15.39	4.08446
15.4	4.07755
15.41	4.07919
15.42	4.08939
15.43	4.06801
15.44	4.08446
15.45	4.10946
15.46	4.09334
15.47	4.08544
15.48	4.10913
15.49	4.09827
15.5	4.05847
15.51	4.07985
15.52	4.10551
15.53	4.12558
15.54	4.06834
15.55	4.06702
15.56	4.07755
15.57	4.12689
15.58	4.11604
15.59	4.1065
15.6	4.07689
15.61	4.03774
15.62	4.04728
15.63	4.0861
15.64	4.07656
15.65	4.09137
15.66	4.10255
15.67	4.09334
15.68	4.08084
15.69	4.05814
15.7	4.08709
15.71	4.12492
15.72	4.10222
15.73	4.09663
15.74	4.09433
15.75	4.09729
15.76	4.09827
15.77	4.07755
15.78	4.05353
15.79	4.04367
15.8	4.08018
15.81	4.10123
15.82	4.0861
15.83	4.1065
15.84	4.06275
15.85	4.09104
15.86	4.07558
15.87	4.07722
15.88	4.04959
15.89	4.07689
15.9	4.0611
15.91	4.07788
15.92	4.09038
15.93	4.10716
15.94	4.1236
15.95	4.07229
15.96	4.08577
15.97	4.08709
15.98	4.09137
15.99	4.10419
16	4.10387
16.01	4.07919
16.02	4.10979
16.03	4.08446
16.04	4.10321
16.05	4.0713
16.06	4.069
16.07	4.11373
16.08	4.0838
16.09	4.07623
16.1	4.06604
16.11	4.09169
16.12	4.07031
16.13	4.06275
16.14	4.08544
16.15	4.08972
16.16	4.0565
16.17	4.04103
16.18	4.07952
16.19	4.06604
16.2	4.08479
16.21	4.09268
16.22	4.09959
16.23	4.0588
16.24	4.07952
16.25	4.06702
16.26	4.03478
16.27	4.08808
16.28	4.06998
16.29	4.02623
16.3	4.06176
16.31	4.06932
16.32	4.08544
16.33	4.02821
16.34	4.06932
16.35	4.10584
16.36	4.06143
16.37	4.05255
16.38	4.07722
16.39	4.06604
16.4	4.06768
16.41	4.03807
16.42	4.03643
16.43	4.06439
16.44	4.10354
16.45	4.07229
16.46	4.06242
16.47	4.05288
16.48	4.11242
16.49	4.07261
16.5	4.0634
16.51	4.07623
16.52	4.07459
16.53	4.09202
16.54	4.10913
16.55	4.06538
16.56	4.06702
16.57	4.04696
16.58	4.07261
16.59	4.06801
16.6	4.1065
16.61	4.09268
16.62	4.09301
16.63	4.06505
16.64	4.05485
16.65	4.06965
16.66	4.06077
16.67	4.0588
16.68	4.04959
16.69	4.06834
16.7	4.10584
16.71	4.06636
16.72	4.04005
16.73	4.02623
16.74	4.05518
16.75	4.06571
16.76	4.05781
16.77	4.06143
16.78	4.06439
16.79	4.05156
16.8	4.04794
16.81	4.04071
16.82	4.04597
16.83	4.03873
16.84	4.05222
16.85	4.05551
16.86	4.0361
16.87	4.04465
16.88	4.05781
16.89	4.04728
16.9	4.06209
16.91	4.04334
16.92	4.07393
16.93	4.05781
16.94	4.04498
16.95	4.07229
16.96	4.0759
16.97	4.08676
16.98	4.0838
16.99	4.05123
17	4.04334
17.01	4.06176
17.02	4.0838
17.03	4.0588
17.04	4.08775
17.05	4.07261
17.06	4.08709
17.07	4.03709
17.08	4.08544
17.09	4.06735
17.1	4.05617
17.11	4.06604
17.12	4.05946
17.13	4.04992
17.14	4.07886
17.15	4.05485
17.16	4.04794
17.17	4.0861
17.18	4.07261
17.19	4.05682
17.2	4.06439
17.21	4.02755
17.22	4.03248
17.23	4.02952
17.24	4.0384
17.25	4.02492
17.26	4.07426
17.27	4.06834
17.28	4.08413
17.29	4.06242
17.3	4.03281
17.31	4.04827
17.32	4.06834
17.33	4.01209
17.34	4.05485
17.35	4.04564
17.36	4.05419
17.37	4.06209
17.38	4.09071
17.39	4.04663
17.4	4.03248
17.41	4.09696
17.42	4.0884
17.43	4.069
17.44	4.01932
17.45	4.06669
17.46	4.09005
17.47	4.03742
17.48	4.03182
17.49	4.00452
17.5	4.02689
17.51	4.04465
17.52	4.02821
17.53	4.0384
17.54	4.05255
17.55	3.99991
17.56	4.04663
17.57	4.07985
17.58	4.07163
17.59	4.06735
17.6	4.07426
17.61	4.0884
17.62	4.07689
17.63	4.07985
17.64	4.05452
17.65	4.07952
17.66	4.03446
17.67	4.06044
17.68	4.07196
17.69	4.06406
17.7	4.0565
17.71	4.0634
17.72	4.06176
17.73	4.01867
17.74	4.03347
17.75	4.07558
17.76	4.02689
17.77	4.01603
17.78	4.06275
17.79	4.069
17.8	4.04071
17.81	4.0759
17.82	4.08446
17.83	4.03281
17.84	4.05452
17.85	4.03643
17.86	4.05584
17.87	4.06077
17.88	4.05847
17.89	4.05255
17.9	4.07294
17.91	4.03577
17.92	4.03742
17.93	4.02755
17.94	4.0213
17.95	4.03051
17.96	4.0815
17.97	4.02228
17.98	4.10781
17.99	4.05781
18	4.06439
18.01	4.00978
18.02	4.03676
18.03	4.02294
18.04	4.07294
18.05	4.04794
18.06	4.02327
18.07	4.06472
18.08	4.08873
18.09	4.0463
18.1	4.08018
18.11	4.07459
18.12	4.05189
18.13	4.06505
18.14	4.05847
18.15	4.06275
18.16	4.05913
18.17	4.06505
18.18	4.01636
18.19	4.06735
18.2	4.05979
18.21	4.04268
18.22	4.03248
18.23	4.05584
18.24	4.07459
18.25	4.02228
18.26	4.05025
18.27	4.00913
18.28	4.07459
18.29	4.07952
18.3	4.0713
18.31	4.05781
18.32	4.08183
18.33	4.05321
18.34	4.06669
18.35	4.05288
18.36	4.02492
18.37	4.0509
18.38	4.02327
18.39	4.02557
18.4	4.03873
18.41	4.0713
18.42	4.06077
18.43	4.03643
18.44	4.04498
18.45	4.04202
18.46	4.05814
18.47	4.02788
18.48	4.02294
18.49	3.99926
18.5	4.01176
18.51	4.03281
18.52	4.02689
18.53	4.00123
18.54	4.03511
18.55	4.06044
18.56	4.05946
18.57	4.08314
18.58	4.03906
18.59	4.05353
18.6	4.10354
18.61	4.04926
18.62	4.03182
18.63	4.04564
18.64	4.08215
18.65	4.09301
18.66	4.02919
18.67	4.02261
18.68	4.05814
18.69	4.044
18.7	4.03676
18.71	4.0463
18.72	4.0384
18.73	4.044
18.74	4.04235
18.75	4.04663
18.76	4.05419
18.77	4.06867
18.78	4.05123
18.79	4.03281
18.8	4.06176
18.81	4.05748
18.82	4.0713
18.83	4.04794
18.84	4.03807
18.85	4.06932
18.86	4.07886
18.87	4.01143
18.88	4.03413
18.89	4.05156
18.9	4.04827
18.91	4.02327
18.92	4.01702
18.93	4.07788
18.94	4.04794
18.95	4.05584
18.96	4.04597
18.97	4.04071
18.98	4.06011
18.99	4.05419
19	4.06373
19.01	4.03774
19.02	4.06373
19.03	4.06439
19.04	4.06998
19.05	4.05025
19.06	4.02788
19.07	4.04465
19.08	4.07327
19.09	4.04564
19.1	4.04432
19.11	4.04663
19.12	4.03939
19.13	4.04827
19.14	4.08084
19.15	4.03051
19.16	4.03215
19.17	4.05551
19.18	4.05551
19.19	4.03643
19.2	4.04564
19.21	4.01932
19.22	4.01044
19.23	4.06538
19.24	4.04005
19.25	4.02228
19.26	4.00781
19.27	4.06044
19.28	4.044
19.29	4.02557
19.3	4.05485
19.31	4.04564
19.32	4.03084
19.33	4.0759
19.34	4.04761
19.35	4.08577
19.36	4.05156
19.37	4.06439
19.38	4.03018
19.39	4.07031
19.4	4.03314
19.41	4.0088
19.42	4.06768
19.43	4.06998
19.44	4.00978
19.45	4.02952
19.46	4.06077
19.47	4.09367
19.48	4.03643
19.49	4.0486
19.5	4.04367
19.51	4.00945
19.52	4.03544
19.53	4.07788
19.54	4.06242
19.55	4.04301
19.56	4.03873
19.57	4.05123
19.58	4.04663
19.59	4.044
19.6	4.04169
19.61	4.04038
19.62	4.02064
19.63	4.05057
19.64	4.05748
19.65	4.06077
19.66	4.05518
19.67	4.06077
19.68	4.0565
19.69	4.03018
19.7	4.04367
19.71	4.03182
19.72	4.03742
19.73	4.02722
19.74	4.05419
19.75	4.03478
19.76	4.07097
19.77	4.02031
19.78	4.04005
19.79	4.05617
19.8	4.00222
19.81	4.02952
19.82	4.04432
19.83	4.05419
19.84	4.0157
19.85	4.02261
19.86	4.07788
19.87	4.05452
19.88	4.00913
19.89	4.03051
19.9	4.02755
19.91	4.0463
19.92	4.05123
19.93	3.99926
19.94	4.04432
19.95	4.03413
19.96	4.02623
19.97	4.0565
19.98	4.0236
19.99	4.02097
20	4.04235
20.01	4.07327
20.02	4.03807
20.03	4.00222
20.04	4.01176
20.05	4.03807
20.06	4.01242
20.07	4.01307
20.08	4.05189
20.09	4.03873
20.1	4.01867
20.11	4.04663
20.12	4.00024
20.13	3.99268
20.14	4.0259
20.15	3.99827
20.16	4.0565
20.17	4.04465
20.18	4.01867
20.19	4.01998
20.2	4.03281
20.21	4.01274
20.22	4.06439
20.23	4.01242
20.24	4.00814
20.25	4.0338
20.26	3.98807
20.27	3.9759
20.28	4.01801
20.29	4.02163
20.3	4.0088
20.31	4.03873
20.32	4.04334
20.33	4.01834
20.34	4.01143
20.35	4.00682
20.36	4.02919
20.37	4.08051
20.38	4.05781
20.39	4.08183
20.4	4.05156
20.41	4.01867
20.42	4.01998
20.43	3.99827
20.44	4.02195
20.45	4.00913
20.46	4.06834
20.47	4.03182
20.48	4.05847
20.49	4.02689
20.5	4.03182
20.51	4.02952
20.52	4.044
20.53	3.99959
20.54	4.03314
20.55	4.03577
20.56	4.02228
20.57	4.07031
20.58	4.02623
20.59	4.01439
20.6	4.0157
20.61	4.02097
20.62	4.04465
20.63	4.02195
20.64	4.01636
20.65	4.03709
20.66	4.03906
20.67	4.05584
20.68	4.03084
20.69	4.05584
20.7	4.06143
20.71	4.04367
20.72	4.03149
20.73	4.08676
20.74	4.06143
20.75	4.04268
20.76	4.01472
20.77	4.01373
20.78	4.0032
20.79	3.97755
20.8	4.00945
20.81	4.04926
20.82	4.05321
20.83	4.07064
20.84	4.03314
20.85	4.00485
20.86	4.05321
20.87	4.07393
20.88	3.98972
20.89	4.04071
20.9	4.04728
20.91	4.07229
20.92	4.00222
20.93	4.03149
20.94	4.00913
20.95	4.04071
20.96	4.02163
20.97	3.96241
20.98	4.04136
20.99	4.05025
21	4.0236
21.01	4.01932
21.02	4.00189
21.03	4.04103
21.04	4.01735
21.05	4.0236
21.06	4.01768
21.07	4.04728
21.08	4.06209
21.09	4.08084
21.1	4.07229
21.11	4.02163
21.12	4.03577
21.13	4.05057
21.14	4.0509
21.15	4.03149
21.16	4.03807
21.17	4.00945
21.18	4.00518
21.19	4.05485
21.2	4.01735
21.21	4.01998
21.22	3.99959
21.23	4.00584
21.24	4.04038
21.25	4.02656
21.26	4.06932
21.27	4.04761
21.28	4.03478
21.29	4.03676
21.3	4.00419
21.31	4.02886
21.32	4.01867
21.33	3.99926
21.34	4.0134
21.35	4.04136
21.36	4.03413
21.37	3.99103
21.38	3.99564
21.39	4.00682
21.4	4.00518
21.41	3.98314
21.42	3.99794
21.43	4.03709
21.44	4.05419
21.45	4.00781
21.46	4.0213
21.47	4.06307
21.48	4.00584
21.49	4.03281
21.5	3.98939
21.51	3.97426
21.52	4.07788
21.53	4.02623
21.54	3.99498
21.55	4.06373
21.56	4.06801
21.57	4.04432
21.58	4.01735
21.59	4.02853
21.6	4.03314
21.61	4.02163
21.62	4.05255
21.63	4.07261
21.64	4.01505
21.65	4.03117
21.66	4.07327
21.67	4.04794
21.68	4.03742
21.69	4.03939
21.7	4.00518
21.71	4.01538
21.72	4.05979
21.73	4.05518
21.74	4.02492
21.75	4.00781
21.76	4.02064
21.77	4.02459
21.78	4.01472
21.79	4.05353
21.8	4.00649
21.81	4.00255
21.82	4.04071
21.83	4.06209
21.84	3.99827
21.85	4.04926
21.86	4.02524
21.87	4.02393
21.88	3.98873
21.89	4.03774
21.9	4.01406
21.91	4.06307
21.92	4.03281
21.93	4.02722
21.94	4.02327
21.95	4.05913
21.96	4.02228
21.97	4.02195
21.98	4.03347
21.99	4.05452
22	4.03807
22.01	4.05353
22.02	4.03544
22.03	4.03972
22.04	4.03873
22.05	4.00616
22.06	4.08018
22.07	4.05123
22.08	4.02886
22.09	4.01998
22.1	4.03478
22.11	4.04597
22.12	4.02886
22.13	4.04728
22.14	4.07886
22.15	4.06571
22.16	4.03446
22.17	4.03577
22.18	4.03182
22.19	3.99465
22.2	4.01143
22.21	4.03906
22.22	4.02097
22.23	4.00814
22.24	4.04005
22.25	4.03577
22.26	4.02853
22.27	4.0236
22.28	4.03709
22.29	4.01702
22.3	3.99695
22.31	4.02985
22.32	4.01274
22.33	4.01702
22.34	4.0157
22.35	4.03544
22.36	4.03709
22.37	4.0588
22.38	4.07886
22.39	4.02919
22.4	4.03182
22.41	4.01899
22.42	4.02689
22.43	4.05518
22.44	4.00288
22.45	3.98314
22.46	4.00123
22.47	4.0111
22.48	4.01834
22.49	4.04136
22.5	4.02163
22.51	4.02755
22.52	4.03478
22.53	4.00781
22.54	4.02064
22.55	3.98478
22.56	4.00978
22.57	4.03248
22.58	4.03117
22.59	4.03182
22.6	4.04071
22.61	3.9963
22.62	3.98807
22.63	4.01965
22.64	4.01998
22.65	4.01636
22.66	4.00156
22.67	3.99103
22.68	4.02952
22.69	4.04301
22.7	4.02656
22.71	4.0361
22.72	4.03413
22.73	4.0134
22.74	4.03511
22.75	4.03182
22.76	4.02327
22.77	4.02327
22.78	4.06702
22.79	4.02722
22.8	4.02163
22.81	3.99005
22.82	4.01669
22.83	4.01439
22.84	4.02064
22.85	4.03906
22.86	4.04235
22.87	4.02689
22.88	4.00386
22.89	3.98544
22.9	4.00518
22.91	3.99399
22.92	4.00945
22.93	4.00682
22.94	4.00024
22.95	4.03478
22.96	4.04992
22.97	4.04005
22.98	4.01636
22.99	4.0611
23	4.01669
23.01	4.01307
23.02	4.03807
23.03	4.03084
23.04	4.03215
23.05	4.0361
23.06	4.00353
23.07	4.01801
23.08	4.0463
23.09	3.98347
23.1	4.03281
23.11	4.00616
23.12	3.99695
23.13	4.01406
23.14	4.02656
23.15	4.05452
23.16	4.00682
23.17	4.0236
23.18	4.04103
23.19	4.04235
23.2	3.98972
23.21	3.99038
23.22	4.01176
23.23	4.04136
23.24	4.02952
23.25	4.00386
23.26	4.0032
23.27	4.01768
23.28	3.9963
23.29	4.02064
23.3	4.02524
23.31	3.99235
23.32	3.97919
23.33	4.01636
23.34	4.01439
23.35	4.02294
23.36	3.99926
23.37	4.00616
23.38	4.0361
23.39	4.03051
23.4	4.00386
23.41	4.02294
23.42	4.01932
23.43	4.03807
23.44	4.01998
23.45	4.06011
23.46	4.02327
23.47	4.01176
23.48	3.9713
23.49	4.03939
23.5	4.03182
23.51	4.00748
23.52	3.99794
23.53	4.0088
23.54	4.00222
23.55	4.00452
23.56	4.01932
23.57	4.03906
23.58	4.03051
23.59	4.01307
23.6	4.03544
23.61	4.04761
23.62	3.99959
23.63	4.00485
23.64	4.03643
23.65	3.98873
23.66	3.99005
23.67	4.01603
23.68	4.03478
23.69	4.04696
23.7	3.9907
23.71	4.01274
23.72	3.99399
23.73	4.02952
23.74	3.99465
23.75	4.0111
23.76	4.02031
23.77	4.02755
23.78	3.99893
23.79	4.01867
23.8	4.044
23.81	4.00353
23.82	3.99695
23.83	4.03018
23.84	4.0361
23.85	4.03182
23.86	4.01406
23.87	4.01307
23.88	3.98939
23.89	3.98643
23.9	3.97787
23.91	3.99728
23.92	4.03314
23.93	4.03281
23.94	3.97557
23.95	4.01209
23.96	4.0486
23.97	4.00781
23.98	4.01242
23.99	4.01307
24	4.03084
24.01	3.99991
24.02	4.01735
24.03	4.04071
24.04	4.04696
24.05	4.01044
24.06	3.9884
24.07	3.97426
24.08	4.00682
24.09	4.00913
24.1	4.00452
24.11	4.03577
24.12	4.03709
24.13	4.00485
24.14	3.9963
24.15	4.0157
24.16	4.00419
24.17	4.00584
24.18	4.01242
24.19	4.02623
24.2	4.01538
24.21	4.04103
24.22	4.04071
24.23	4.03413
24.24	4.02623
24.25	4.03873
24.26	4.01143
24.27	4.03544
24.28	4.0565
24.29	4.02689
24.3	4.02524
24.31	4.0236
24.32	4.02623
24.33	4.03182
24.34	4.03939
24.35	4.01636
24.36	4.01242
24.37	4.0157
24.38	3.99334
24.39	4.01899
24.4	4.02557
24.41	4.00847
24.42	4.00485
24.43	4.0565
24.44	4.00945
24.45	4.01505
24.46	4.00222
24.47	4.04794
24.48	4.02557
24.49	3.99597
24.5	4.03314
24.51	4.00353
24.52	4.01044
24.53	4.02261
24.54	4.02952
24.55	3.99005
24.56	4.04136
24.57	4.02524
24.58	3.99301
24.59	4.0338
24.6	4.01307
24.61	4.01834
24.62	4.00353
24.63	4.01603
24.64	4.00419
24.65	4.01867
24.66	4.0361
24.67	4.01274
24.68	3.99991
24.69	4.01242
24.7	3.98774
24.71	4.01801
24.72	3.98807
24.73	4.00222
24.74	3.98544
24.75	3.9759
24.76	3.95748
24.77	3.98084
24.78	4.02853
24.79	4.02623
24.8	4.05419
24.81	4.03807
24.82	4.0032
24.83	4.02853
24.84	4.00189
24.85	4.03215
24.86	4.01505
24.87	3.99005
24.88	4.01603
24.89	4.01077
24.9	4.00682
24.91	4.03413
24.92	3.98149
24.93	3.99103
24.94	4.01011
24.95	3.99432
24.96	3.99399
24.97	4.03149
24.98	4.01834
24.99	3.99202
25	3.99103
25.01	4.0088
25.02	4.0236
25.03	3.98774
25.04	4.01867
25.05	4.03774
25.06	3.9884
25.07	3.97097
25.08	3.99959
25.09	3.97261
25.1	3.99761
25.11	3.97426
25.12	3.94926
25.13	3.99235
25.14	3.98577
25.15	3.98116
25.16	3.98445
25.17	4.03314
25.18	4.01867
25.19	3.98018
25.2	4.01274
25.21	4.01735
25.22	3.98182
25.23	4.02952
25.24	4.02623
25.25	4.01768
25.26	4.01538
25.27	4.02097
25.28	4.00978
25.29	4.03709
25.3	4.02689
25.31	4.01274
25.32	4.00649
25.33	3.9736
25.34	4.0157
25.35	4.03446
25.36	4.00913
25.37	3.99202
25.38	4.0032
25.39	4.00584
25.4	4.0463
25.41	3.98281
25.42	3.99465
25.43	3.97228
25.44	3.96505
25.45	3.99663
25.46	3.99005
25.47	4.01373
25.48	4.00649
25.49	4.02623
25.5	4.044
25.51	4.04367
25.52	3.9963
25.53	4.01242
25.54	3.97162
25.55	4.01274
25.56	4.03215
25.57	4.00945
25.58	4.00913
25.59	3.9657
25.6	4.0213
25.61	3.99268
25.62	3.96406
25.63	3.98051
25.64	3.99728
25.65	4.02492
25.66	4.04005
25.67	4.01998
25.68	3.99728
25.69	3.98906
25.7	3.99399
25.71	3.98018
25.72	3.99893
25.73	4.00584
25.74	4.01735
25.75	4.00616
25.76	3.99728
25.77	4.01801
25.78	4.00584
25.79	4.00189
25.8	4.03084
25.81	4.01044
25.82	4.01834
25.83	4.04136
25.84	3.99893
25.85	3.99334
25.86	4.03544
25.87	3.99564
25.88	3.99597
25.89	3.98347
25.9	3.98774
25.91	4.02031
25.92	3.95715
25.93	4.01998
25.94	4.02755
25.95	4.04103
25.96	4.04334
25.97	3.99399
25.98	3.99038
25.99	4.01406
26	3.99893
26.01	3.98116
26.02	4.01011
26.03	4.00781
26.04	3.99926
26.05	4.00288
26.06	4.00682
26.07	4.00814
26.08	3.98511
26.09	4.01735
26.1	3.99136
26.11	3.99202
26.12	3.96603
26.13	4.00123
26.14	4.03347
26.15	4.01274
26.16	3.99695
26.17	4.0213
26.18	4.01439
26.19	3.9736
26.2	4.01143
26.21	4.01143
26.22	4.01143
26.23	4.03446
26.24	4.0111
26.25	3.99432
26.26	3.97755
26.27	4.00419
26.28	3.99366
26.29	3.95649
26.3	3.95287
26.31	3.98182
26.32	4.00189
26.33	4.02788
26.34	4.0338
26.35	4.03413
26.36	4.00189
26.37	4.03709
26.38	4.044
26.39	3.99959
26.4	4.00814
26.41	4.00551
26.42	3.97327
26.43	4.0088
26.44	4.01044
26.45	4.02886
26.46	4.0236
26.47	3.97853
26.48	3.97689
26.49	3.9907
26.5	4.00978
26.51	4.03314
26.52	3.97853
26.53	4.01439
26.54	3.98314
26.55	3.97952
26.56	3.98972
26.57	4.03511
26.58	4.01636
26.59	4.03051
26.6	4.00781
26.61	3.99038
26.62	3.99663
26.63	4.01274
26.64	4.0134
26.65	4.02623
26.66	3.9861
26.67	4.00649
26.68	3.98248
26.69	3.98906
26.7	3.99136
26.71	3.98215
26.72	3.97886
26.73	4.01702
26.74	4.01472
26.75	4.00222
26.76	3.96439
26.77	3.98939
26.78	3.96932
26.79	3.98972
26.8	3.99531
26.81	3.9907
26.82	3.99926
26.83	3.97031
26.84	4.01274
26.85	4.01603
26.86	3.97755
26.87	3.97985
26.88	3.99399
26.89	3.96833
26.9	3.96011
26.91	3.98643
26.92	4.01143
26.93	3.9782
26.94	3.9963
26.95	3.98709
26.96	4.0213
26.97	4.00057
26.98	3.99202
26.99	4.0134
27	3.99399
27.01	3.96472
27.02	3.96932
27.03	3.98807
27.04	4.00748
27.05	4.0111
27.06	4.00288
27.07	4.01307
27.08	3.98018
27.09	4.00748
27.1	4.02557
27.11	4.03807
27.12	4.00682
27.13	3.98215
27.14	3.99893
27.15	4.00715
27.16	4.00814
27.17	3.95452
27.18	4.0088
27.19	3.97524
27.2	3.99893
27.21	3.99794
27.22	4.01538
27.23	3.99268
27.24	4.02195
27.25	4.01702
27.26	3.99761
27.27	4.02393
27.28	4.03084
27.29	4.00814
27.3	3.98577
27.31	4.00288
27.32	3.9759
27.33	3.96866
27.34	3.99465
27.35	4.03446
27.36	4.02689
27.37	3.99761
27.38	3.99301
27.39	3.99761
27.4	3.95222
27.41	3.98741
27.42	4.03347
27.43	3.99005
27.44	3.99926
27.45	4.0009
27.46	3.9986
27.47	4.00518
27.48	4.02294
27.49	4.0032
27.5	3.99663
27.51	3.99827
27.52	4.00518
27.53	3.99268
27.54	4.00353
27.55	4.00419
27.56	3.99991
27.57	3.9634
27.58	4.01899
27.59	3.98051
27.6	4.01998
27.61	3.99235
27.62	3.97393
27.63	4.00024
27.64	3.97097
27.65	4.00123
27.66	4.00386
27.67	4.00189
27.68	4.02656
27.69	4.01505
27.7	3.99399
27.71	3.99334
27.72	4.01899
27.73	3.98939
27.74	4.01044
27.75	4.01209
27.76	3.97393
27.77	4.02689
27.78	4.00518
27.79	3.96603
27.8	4.01439
27.81	4.01636
27.82	4.01636
27.83	3.99728
27.84	4.03972
27.85	4.01044
27.86	4.00057
27.87	3.98544
27.88	4.02722
27.89	3.9657
27.9	3.9588
27.91	4.00616
27.92	4.044
27.93	4.01932
27.94	3.9861
27.95	3.99465
27.96	4.02689
27.97	4.02492
27.98	4.0134
27.99	4.02426
28	4.00057
28.01	3.98972
28.02	4.00682
28.03	4.00518
28.04	4.01932
28.05	4.00222
28.06	3.9759
28.07	4.03215
28.08	4.0032
28.09	3.96208
28.1	4.00156
28.11	4.03084
28.12	3.99465
28.13	4.00551
28.14	4.0009
28.15	3.98544
28.16	3.99399
28.17	3.99038
28.18	4.0134
28.19	3.97294
28.2	4.01801
28.21	3.98676
28.22	4.03939
28.23	3.99597
28.24	4.01735
28.25	4.01505
28.26	4.00616
28.27	4.00452
28.28	4.01538
28.29	4.01176
28.3	3.99893
28.31	3.98084
28.32	4.04235
28.33	4.00255
28.34	3.98445
28.35	3.9963
28.36	3.97459
28.37	4.00386
28.38	3.97195
28.39	3.98116
28.4	3.9861
28.41	4.01932
28.42	4.00551
28.43	3.96472
28.44	4.00847
28.45	3.97031
28.46	3.99794
28.47	4.00419
28.48	3.98577
28.49	4.0213
28.5	4.02097
28.51	4.04498
28.52	4.00452
28.53	4.00156
28.54	3.9986
28.55	3.99926
28.56	3.98643
28.57	3.99926
28.58	3.9884
28.59	4.0009
28.6	4.03643
28.61	4.02064
28.62	4.02886
28.63	4.01472
28.64	3.9736
28.65	4.00222
28.66	3.99202
28.67	3.96768
28.68	3.9657
28.69	3.97195
28.7	3.98314
28.71	4.00715
28.72	4.00189
28.73	4.00715
28.74	4.00682
28.75	4.03544
28.76	4.02064
28.77	3.9588
28.78	4.00189
28.79	4.02722
28.8	4.0236
28.81	3.97722
28.82	3.94531
28.83	3.98347
28.84	3.99728
28.85	3.99531
28.86	3.97886
28.87	3.96833
28.88	4.00551
28.89	3.99728
28.9	4.02327
28.91	3.99301
28.92	3.95353
28.93	3.99564
28.94	3.99959
28.95	4.01932
28.96	3.99794
28.97	3.98511
28.98	3.98215
28.99	4.01077
29	4.0009
29.01	3.96373
29.02	3.96241
29.03	3.99761
29.04	4.01801
29.05	3.98018
29.06	4.01242
29.07	3.99334
29.08	3.97886
29.09	3.99531
29.1	4.01044
29.11	3.99531
29.12	4.0157
29.13	4.02886
29.14	3.98709
29.15	4.01176
29.16	3.96636
29.17	3.9713
29.18	3.92886
29.19	4.00222
29.2	4.01011
29.21	4.02755
29.22	4.01439
29.23	3.99728
29.24	3.96702
29.25	3.96899
29.26	3.96899
29.27	3.98116
29.28	4.00452
29.29	3.98774
29.3	4.00419
29.31	4.00616
29.32	4.03478
29.33	4.04367
29.34	3.96932
29.35	3.9713
29.36	3.97689
29.37	4.0111
29.38	3.97426
29.39	4.00057
29.4	4.0213
29.41	3.9838
29.42	3.99432
29.43	3.98972
29.44	3.99432
29.45	3.99926
29.46	3.95748
29.47	4.01242
29.48	3.98577
29.49	3.97459
29.5	3.99399
29.51	4.02755
29.52	4.02426
29.53	4.02755
29.54	3.99005
29.55	3.97755
29.56	3.99301
29.57	3.99235
29.58	3.99926
29.59	3.99301
29.6	3.97623
29.61	3.98774
29.62	4.01867
29.63	4.00551
29.64	3.94893
29.65	4.00978
29.66	4.00551
29.67	4.0213
29.68	4.0259
29.69	3.99169
29.7	3.98215
29.71	4.00978
29.72	3.98511
29.73	4.00419
29.74	4.01702
29.75	3.98281
29.76	3.9963
29.77	3.96866
29.78	4.02195
29.79	3.99959
29.8	3.98709
29.81	3.99301
29.82	4.02821
29.83	3.9838
29.84	3.96406
29.85	4.01505
29.86	4.01702
29.87	3.99202
29.88	4.02492
29.89	3.95978
29.9	4.00945
29.91	4.01932
29.92	3.98873
29.93	4.01044
29.94	4.00649
29.95	3.99991
29.96	4.00255
29.97	3.96406
29.98	3.99235
29.99	4.03215
30	3.98544
30.01	3.96077
30.02	4.00353
30.03	3.99169
30.04	3.95583
30.05	3.97787
30.06	3.99761
30.07	4.00386
30.08	3.97722
30.09	4.01011
30.1	3.99991
30.11	4.00485
30.12	4.03117
30.13	4.01801
30.14	3.98248
30.15	3.97327
30.16	4.00485
30.17	4.00386
30.18	3.99728
30.19	3.97656
30.2	3.98281
30.21	4.00649
30.22	4.00222
30.23	3.94958
30.24	4.01439
30.25	3.98709
30.26	4.02557
30.27	4.0009
30.28	4.02919
30.29	3.99103
30.3	3.96998
30.31	3.99498
30.32	3.96801
30.33	4.01406
30.34	4.0338
30.35	4.00748
30.36	3.99202
30.37	3.94564
30.38	3.98807
30.39	3.98215
30.4	3.98281
30.41	3.98445
30.42	3.99991
30.43	3.97985
30.44	4.01965
30.45	4.0009
30.46	3.98577
30.47	3.98215
30.48	4.01143
30.49	3.97952
30.5	4.01735
30.51	3.99761
30.52	4.00452
30.53	4.00189
30.54	3.97228
30.55	3.98116
30.56	3.98412
30.57	3.96899
30.58	3.9986
30.59	3.99268
30.6	3.99136
30.61	3.93708
30.62	3.98741
30.63	4.01932
30.64	4.00584
30.65	4.00386
30.66	4.00189
30.67	4.00945
30.68	3.97228
30.69	3.96768
30.7	3.99728
30.71	4.00814
30.72	3.98347
30.73	3.99564
30.74	4.03084
30.75	3.98347
30.76	3.99005
30.77	4.00288
30.78	3.98906
30.79	3.98215
30.8	4.03149
30.81	3.98281
30.82	4.00386
30.83	3.99761
30.84	4.00255
30.85	4.00156
30.86	4.01077
30.87	3.98774
30.88	3.9986
30.89	4.01472
30.9	3.98906
30.91	4.0134
30.92	4.02228
30.93	3.99728
30.94	4.02228
30.95	4.01899
30.96	3.99465
30.97	3.97952
30.98	4.0134
30.99	4.00419
31	3.99991
31.01	4.00452
31.02	4.01899
31.03	4.00649
31.04	3.98972
31.05	4.01011
31.06	3.98577
31.07	3.99235
31.08	3.95551
31.09	3.93774
31.1	4.00781
31.11	4.03347
31.12	3.98084
31.13	3.98643
31.14	3.99103
31.15	4.01998
31.16	4.0157
31.17	3.99366
31.18	3.99959
31.19	4.01307
31.2	3.9759
31.21	3.99959
31.22	3.98709
31.23	3.95912
31.24	4.01373
31.25	3.99498
31.26	3.99761
31.27	4.00353
31.28	4.00222
31.29	4.03215
31.3	4.00913
31.31	3.99794
31.32	3.99334
31.33	3.99926
31.34	3.99695
31.35	3.98445
31.36	3.95715
31.37	3.98577
31.38	4.00255
31.39	4.00682
31.4	3.99728
31.41	4.00255
31.42	3.9759
31.43	3.95452
31.44	3.98149
31.45	4.00057
31.46	4.00024
31.47	4.01702
31.48	4.02689
31.49	3.97162
31.5	3.98116
31.51	4.00255
31.52	3.98149
31.53	4.01505
31.54	3.99301
31.55	4.02195
31.56	3.98018
31.57	4.04663
31.58	4.02261
31.59	3.98774
31.6	4.01965
31.61	3.95978
31.62	3.97261
31.63	4.00386
31.64	4.01603
31.65	3.99103
31.66	4.0111
31.67	4.0032
31.68	3.9884
31.69	4.01077
31.7	4.02557
31.71	4.01998
31.72	3.98149
31.73	4.00189
31.74	4.03446
31.75	4.01242
31.76	4.00913
31.77	3.99334
31.78	3.98281
31.79	4.00288
31.8	3.99926
31.81	3.94926
31.82	3.96143
31.83	3.98676
31.84	3.99038
31.85	3.95682
31.86	3.96899
31.87	3.98939
31.88	3.97294
31.89	3.98577
31.9	3.99498
31.91	3.98314
31.92	3.9736
31.93	3.96965
31.94	3.98018
31.95	3.94333
31.96	3.99827
31.97	4.00781
31.98	4.01669
31.99	4.01603
32	3.98445
32.01	3.96669
32.02	3.9759
32.03	4.00485
32.04	4.00682
32.05	4.00649
32.06	3.98116
32.07	3.98347
32.08	3.99235
32.09	4.00024
32.1	4.00518
32.11	4.0236
32.12	4.02031
32.13	3.98972
32.14	3.99761
32.15	3.94268
32.16	4.00978
32.17	4.00584
32.18	4.00419
32.19	3.99531
32.2	4.00748
32.21	3.99498
32.22	4.02393
32.23	3.98741
32.24	3.9782
32.25	3.97656
32.26	3.98018
32.27	3.98248
32.28	3.9634
32.29	3.98511
32.3	4.0009
32.31	4.01242
32.32	3.98182
32.33	3.96965
32.34	3.99038
32.35	3.97426
32.36	3.9838
32.37	4.00715
32.38	3.99597
32.39	3.97031
32.4	3.96899
32.41	3.98577
32.42	3.98182
32.43	3.94991
32.44	3.9611
32.45	3.97787
32.46	3.9838
32.47	3.98215
32.48	3.97755
32.49	3.95715
32.5	3.96735
32.51	4.01735
32.52	4.02195
32.53	4.01768
32.54	4.02623
32.55	3.98873
32.56	3.9759
32.57	3.9713
32.58	3.97722
32.59	4.0111
32.6	3.98511
32.61	3.97623
32.62	4.00222
32.63	4.01636
32.64	4.00485
32.65	4.01044
32.66	3.9861
32.67	3.99235
32.68	3.98116
32.69	4.00255
32.7	3.97886
32.71	3.9861
32.72	3.97623
32.73	3.99728
32.74	4.00781
32.75	3.97952
32.76	3.98972
32.77	4.01209
32.78	3.98873
32.79	3.99564
32.8	3.96866
32.81	3.95978
32.82	3.98972
32.83	3.98412
32.84	3.9361
32.85	3.99564
32.86	4.01834
32.87	4.01406
32.88	3.99959
32.89	3.98544
32.9	3.95551
32.91	3.95189
32.92	3.9588
32.93	3.97294
32.94	4.02985
32.95	3.99399
32.96	3.99498
32.97	3.99498
32.98	3.97755
32.99	3.97952
33	3.99794
33.01	3.99465
33.02	4.00847
33.03	4.0032
33.04	3.99136
33.05	3.98741
33.06	3.9713
33.07	4.00682
33.08	4.03281
33.09	4.00156
33.1	3.98478
33.11	3.97524
33.12	3.96077
33.13	3.97195
33.14	3.96899
33.15	3.98939
33.16	3.99169
33.17	3.98412
33.18	3.96866
33.19	3.99531
33.2	3.9634
33.21	3.97656
33.22	3.98643
33.23	4.00485
33.24	4.00715
33.25	3.97294
33.26	3.98445
33.27	3.97097
33.28	3.98445
33.29	3.98116
33.3	3.98906
33.31	4.00222
33.32	3.97853
33.33	4.02064
33.34	3.97491
33.35	3.9361
33.36	3.95254
33.37	3.97064
33.38	3.94728
33.39	3.98182
33.4	3.97656
33.41	4.00551
33.42	4.00584
33.43	3.97787
33.44	3.97426
33.45	3.99465
33.46	3.98248
33.47	3.98314
33.48	3.97524
33.49	3.96932
33.5	3.97294
33.51	4.01242
33.52	3.96406
33.53	3.96932
33.54	3.96735
33.55	3.99235
33.56	3.98018
33.57	4.01044
33.58	3.99334
33.59	4.0009
33.6	4.00584
33.61	3.99301
33.62	3.98939
33.63	3.96241
33.64	3.97623
33.65	4.0134
33.66	4.01011
33.67	4.00584
33.68	3.99498
33.69	4.00551
33.7	3.97524
33.71	3.96472
33.72	3.95189
33.73	3.95912
33.74	3.98412
33.75	3.9838
33.76	3.98412
33.77	3.97985
33.78	3.99465
33.79	4.02886
33.8	3.98544
33.81	4.00353
33.82	4.00551
33.83	3.97985
33.84	3.94169
33.85	3.99301
33.86	3.97195
33.87	4.01209
33.88	3.98709
33.89	4.0009
33.9	3.99531
33.91	3.98577
33.92	3.97327
33.93	3.97031
33.94	3.94333
33.95	3.98018
33.96	3.99432
33.97	4.00024
33.98	3.9884
33.99	3.99597
34	4.01801
34.01	3.98018
34.02	3.95781
34.03	3.99728
34.04	3.98643
34.05	3.98116
34.06	3.95353
34.07	3.96077
34.08	3.97919
34.09	4.00419
34.1	4.00452
34.11	3.96768
34.12	3.97294
34.13	3.96439
34.14	3.99136
34.15	3.99597
34.16	3.98873
34.17	3.97623
34.18	3.97656
34.19	3.94629
34.2	3.98445
34.21	3.99991
34.22	4.00255
34.23	3.97689
34.24	3.97623
34.25	4.01176
34.26	3.97459
34.27	3.98544
34.28	3.94761
34.29	3.97656
34.3	3.96011
34.31	3.97656
34.32	4.00649
34.33	4.00452
34.34	4.00682
34.35	4.02097
34.36	3.97327
34.37	3.99926
34.38	3.96866
34.39	3.9907
34.4	3.99038
34.41	3.97162
34.42	3.96636
34.43	3.98906
34.44	3.98676
34.45	4.01702
34.46	3.99366
34.47	4.01965
34.48	3.98412
34.49	3.95189
34.5	4.00584
34.51	4.00518
34.52	3.99498
34.53	3.99202
34.54	3.98939
34.55	3.97886
34.56	3.98511
34.57	3.97524
34.58	3.98347
34.59	4.00419
34.6	3.99103
34.61	3.97952
34.62	3.97755
34.63	4.00452
34.64	3.99202
34.65	3.98676
34.66	4.02788
34.67	3.95156
34.68	3.97755
34.69	4.02031
34.7	3.98412
34.71	3.99926
34.72	3.96702
34.73	3.98116
34.74	3.98906
34.75	3.9509
34.76	3.97162
34.77	3.97853
34.78	3.94333
34.79	3.97952
34.8	3.99038
34.81	3.9782
34.82	3.97393
34.83	3.99498
34.84	4.01209
34.85	3.95912
34.86	3.96077
34.87	3.96866
34.88	4.00288
34.89	3.96801
34.9	3.97853
34.91	4.03215
34.92	3.94301
34.93	3.95156
34.94	3.9838
34.95	3.9611
34.96	3.99663
34.97	4.03972
34.98	3.98577
34.99	3.98478
35	3.99827
35.01	3.95254
35.02	3.97064
35.03	3.97524
35.04	3.97327
35.05	3.99597
35.06	4.00616
35.07	3.99432
35.08	4.00156
35.09	3.97064
35.1	3.98084
35.11	3.99926
35.12	3.9759
35.13	3.9634
35.14	3.95057
35.15	3.99399
35.16	3.99728
35.17	3.96439
35.18	3.97557
35.19	3.9759
35.2	4.0088
35.21	4.01538
35.22	4.00419
35.23	4.01209
35.24	3.99268
35.25	4.01439
35.26	3.95189
35.27	3.97459
35.28	4.00419
35.29	4.00715
35.3	3.99268
35.31	3.98314
35.32	3.97886
35.33	3.95419
35.34	3.99432
35.35	4.01176
35.36	3.99301
35.37	3.99465
35.38	4.02163
35.39	4.01834
35.4	4.01899
35.41	3.96044
35.42	3.96472
35.43	3.9986
35.44	3.96505
35.45	3.99399
35.46	3.99136
35.47	3.97623
35.48	3.95616
35.49	3.94531
35.5	3.95287
35.51	3.95649
35.52	3.97426
35.53	3.93807
35.54	3.98939
35.55	4.00419
35.56	3.9907
35.57	3.96932
35.58	3.96373
35.59	3.94926
35.6	3.94399
35.61	3.99663
35.62	3.9759
35.63	3.99531
35.64	3.99991
35.65	3.97755
35.66	4.02426
35.67	4.0032
35.68	4.00288
35.69	4.02623
35.7	3.99235
35.71	3.98116
35.72	4.00682
35.73	3.99663
35.74	3.99498
35.75	4.0032
35.76	4.00945
35.77	4.01538
35.78	3.99728
35.79	3.99465
35.8	3.9782
35.81	4.00156
35.82	4.03709
35.83	4.01176
35.84	3.97195
35.85	3.97393
35.86	4.00222
35.87	4.01603
35.88	4.00288
35.89	3.97952
35.9	3.96505
35.91	3.97097
35.92	3.97162
35.93	3.98215
35.94	3.96735
35.95	3.93972
35.96	4.01932
35.97	3.99926
35.98	3.99794
35.99	4.01998
36	3.97195
36.01	3.98643
36.02	3.98939
36.03	4.01867
36.04	3.99235
36.05	3.95583
36.06	3.97228
36.07	4.00847
36.08	3.99827
36.09	3.99926
36.1	3.98445
36.11	3.94695
36.12	3.98478
36.13	4.00419
36.14	3.98018
36.15	3.96044
36.16	3.97294
36.17	3.99794
36.18	3.9611
36.19	3.97985
36.2	3.94958
36.21	3.9384
36.22	3.99465
36.23	3.98412
36.24	3.98807
36.25	3.99991
36.26	3.98412
36.27	3.94301
36.28	3.98676
36.29	3.99169
36.3	4.02722
36.31	3.99268
36.32	3.98906
36.33	3.98182
36.34	3.99136
36.35	4.01801
36.36	3.98577
36.37	3.94761
36.38	3.97952
36.39	3.9838
36.4	4.02031
36.41	3.97656
36.42	4.01274
36.43	3.96866
36.44	3.98182
36.45	3.98445
36.46	3.98412
36.47	3.9986
36.48	3.99597
36.49	3.97919
36.5	3.96669
36.51	3.98182
36.52	4.01899
36.53	4.01834
36.54	3.9963
36.55	3.98149
36.56	4.00715
36.57	4.02195
36.58	4.00913
36.59	4.00913
36.6	3.97097
36.61	4.00419
36.62	3.99005
36.63	4.0009
36.64	4.00024
36.65	3.99893
36.66	3.98676
36.67	3.95485
36.68	3.98478
36.69	3.97294
36.7	3.98445
36.71	4.00682
36.72	4.00255
36.73	3.97294
36.74	3.98544
36.75	3.97985
36.76	3.98018
36.77	3.98807
36.78	3.97031
36.79	3.9963
36.8	3.98511
36.81	4.00419
36.82	3.95123
36.83	3.96899
36.84	3.97722
36.85	3.9588
36.86	3.98709
36.87	3.97985
36.88	4.01011
36.89	3.97689
36.9	4.01867
36.91	4.00419
36.92	3.98807
36.93	4.02853
36.94	3.95748
36.95	3.94893
36.96	4.00616
36.97	3.9611
36.98	3.97459
36.99	3.99268
37	3.98018
37.01	3.9361
37.02	3.96702
37.03	3.96537
37.04	3.9588
37.05	3.96241
37.06	3.98412
37.07	3.99893
37.08	4.03117
37.09	4.01077
37.1	3.98511
37.11	4.00353
37.12	3.96603
37.13	3.96866
37.14	3.97689
37.15	3.99597
37.16	3.98709
37.17	3.97755
37.18	3.99926
37.19	4.00156
37.2	3.98281
37.21	3.99301
37.22	3.98215
37.23	3.96472
37.24	4.01702
37.25	3.9782
37.26	3.99695
37.27	3.9657
37.28	3.97656
37.29	3.97294
37.3	3.99498
37.31	3.95551
37.32	3.97623
37.33	3.9759
37.34	3.99268
37.35	3.97853
37.36	3.97524
37.37	3.97162
37.38	3.9588
37.39	4.00518
37.4	4.00616
37.41	4.01373
37.42	3.97656
37.43	3.99038
37.44	3.95485
37.45	3.96406
37.46	3.98215
37.47	3.98051
37.48	3.98741
37.49	3.97919
37.5	3.98248
37.51	3.99169
37.52	3.96208
37.53	3.98281
37.54	3.99268
37.55	3.98972
37.56	3.98939
37.57	3.96274
37.58	3.96208
37.59	3.9782
37.6	3.99991
37.61	3.99005
37.62	3.96702
37.63	3.9532
37.64	3.97031
37.65	4.00057
37.66	3.99005
37.67	3.92919
37.68	3.98051
37.69	3.99695
37.7	4.0111
37.71	4.01209
37.72	3.99959
37.73	3.99366
37.74	3.9611
37.75	3.96965
37.76	4.00288
37.77	4.03544
37.78	3.95452
37.79	3.98577
37.8	3.96768
37.81	3.99893
37.82	3.98676
37.83	4.00748
37.84	4.01307
37.85	4.02623
37.86	3.98018
37.87	3.98741
37.88	3.99202
37.89	3.99761
37.9	3.97459
37.91	3.97294
37.92	3.97195
37.93	3.98149
37.94	3.94202
37.95	3.93511
37.96	3.98281
37.97	3.97656
37.98	3.96932
37.99	3.96439
38	3.97886
38.01	3.98149
38.02	3.9782
38.03	4.00551
38.04	3.98544
38.05	3.95781
38.06	4.01834
38.07	3.98873
38.08	3.99959
38.09	3.97722
38.1	3.93478
38.11	3.9384
38.12	3.97557
38.13	3.99663
38.14	3.99761
38.15	3.9986
38.16	3.99695
38.17	4.00419
38.18	3.99827
38.19	4.01603
38.2	3.96833
38.21	3.98939
38.22	3.98544
38.23	3.98478
38.24	3.99761
38.25	3.99531
38.26	3.98873
38.27	4.00057
38.28	4.01834
38.29	4.01735
38.3	4.00452
38.31	3.99597
38.32	4.01538
38.33	4.00024
38.34	3.96537
38.35	3.97261
38.36	4.02985
38.37	4.00255
38.38	3.95156
38.39	3.9861
38.4	3.98577
38.41	3.95386
38.42	3.96833
38.43	3.9963
38.44	3.96143
38.45	3.97393
38.46	3.99827
38.47	4.00682
38.48	3.99005
38.49	3.99005
38.5	4.0236
38.51	3.9657
38.52	3.94498
38.53	3.96011
38.54	3.98347
38.55	3.97755
38.56	3.97722
38.57	3.96702
38.58	3.98116
38.59	3.99005
38.6	3.96833
38.61	3.99169
38.62	3.99564
38.63	3.9861
38.64	3.94991
38.65	3.99794
38.66	3.98347
38.67	3.96702
38.68	4.00847
38.69	4.01044
38.7	3.99597
38.71	4.00057
38.72	3.96932
38.73	3.99334
38.74	3.97064
38.75	3.97853
38.76	3.99235
38.77	4.00978
38.78	3.9861
38.79	3.98149
38.8	3.93643
38.81	3.95814
38.82	3.98281
38.83	3.9611
38.84	3.99301
38.85	4.02064
38.86	3.97623
38.87	4.02492
38.88	3.99959
38.89	3.94695
38.9	3.94465
38.91	3.99103
38.92	3.99235
38.93	3.98314
38.94	3.96998
38.95	4.01242
38.96	4.04169
38.97	3.98676
38.98	3.9736
38.99	3.98051
39	4.00386
39.01	3.97557
39.02	3.99169
39.03	4.01702
39.04	3.96833
39.05	3.96439
39.06	4.01439
39.07	4.01242
39.08	4.02327
39.09	3.99564
39.1	3.99366
39.11	3.96866
39.12	3.96669
39.13	3.98577
39.14	3.99597
39.15	3.9963
39.16	3.9759
39.17	3.96735
39.18	3.9782
39.19	3.97097
39.2	3.95189
39.21	3.95616
39.22	3.96866
39.23	3.95485
39.24	3.97919
39.25	3.96044
39.26	3.98412
39.27	3.99465
39.28	3.98709
39.29	3.96373
39.3	3.96965
39.31	3.94432
39.32	3.98412
39.33	4.03018
39.34	3.99597
39.35	4.01768
39.36	3.98544
39.37	3.97261
39.38	3.95583
39.39	3.96866
39.4	3.95024
39.41	3.95781
39.42	3.98676
39.43	3.97459
39.44	3.9963
39.45	4.02294
39.46	3.98182
39.47	3.98215
39.48	4.00649
39.49	4.00682
39.5	3.99991
39.51	3.97952
39.52	3.95419
39.53	3.9282
39.54	3.9759
39.55	3.96998
39.56	3.97755
39.57	3.94531
39.58	3.94991
39.59	3.98018
39.6	3.95945
39.61	3.99366
39.62	3.97689
39.63	3.96472
39.64	3.98445
39.65	3.97656
39.66	3.95518
39.67	3.95287
39.68	3.96603
39.69	3.9407
39.7	3.9838
39.71	4.00781
39.72	3.99268
39.73	3.9963
39.74	3.97886
39.75	3.99465
39.76	3.97162
39.77	3.97228
39.78	4.03182
39.79	3.96406
39.8	4.00123
39.81	3.97623
39.82	4.01077
39.83	3.99597
39.84	3.9657
39.85	3.98709
39.86	3.99663
39.87	3.99169
39.88	3.99005
39.89	3.99268
39.9	3.99564
39.91	3.97294
39.92	4.03149
39.93	4.00123
39.94	3.9657
39.95	3.94169
39.96	3.98149
39.97	3.9838
39.98	3.99103
39.99	4.00682
40	3.99959
40.01	4.0111
40.02	3.97327
40.03	3.96932
40.04	3.93314
40.05	3.98149
40.06	4.01472
40.07	3.9963
40.08	4.00748
40.09	3.97426
40.1	3.98906
40.11	3.98182
40.12	3.98939
40.13	3.99202
40.14	4.02656
40.15	4.01834
40.16	3.96636
40.17	3.95156
40.18	3.95386
40.19	3.99334
40.2	3.97853
40.21	4.01143
40.22	4.01373
40.23	3.99334
40.24	3.97491
40.25	4.0032
40.26	3.96373
40.27	3.99959
40.28	3.95156
40.29	3.97162
40.3	3.99597
40.31	3.99038
40.32	3.93972
40.33	3.97787
40.34	3.9884
40.35	3.99334
40.36	4.01768
40.37	3.97261
40.38	3.99498
40.39	3.98018
40.4	3.99169
40.41	3.95912
40.42	3.97393
40.43	3.97097
40.44	3.99893
40.45	3.98347
40.46	4.01307
40.47	4.0157
40.48	3.97689
40.49	3.99893
40.5	3.9759
40.51	3.98709
40.52	3.99926
40.53	3.99794
40.54	4.01242
40.55	3.98084
40.56	3.99728
40.57	3.99728
40.58	3.99728
40.59	3.96044
40.6	3.94333
40.61	3.95847
40.62	3.97985
40.63	3.99103
40.64	3.97722
40.65	4.01702
40.66	3.99235
40.67	3.95419
40.68	3.9657
40.69	3.96768
40.7	4.01505
40.71	3.98643
40.72	3.96833
40.73	3.98939
40.74	4.00847
40.75	3.98149
40.76	3.98182
40.77	3.97491
40.78	3.97919
40.79	3.96636
40.8	4.02393
40.81	4.01998
40.82	3.98084
40.83	3.95419
40.84	3.97755
40.85	3.99334
40.86	3.99597
40.87	4.03478
40.88	4.01735
40.89	3.99399
40.9	3.99399
40.91	3.97294
40.92	3.98412
40.93	3.97491
40.94	3.99334
40.95	3.98643
40.96	3.98873
40.97	4.00189
40.98	3.98939
40.99	4.00024
41	3.99991
41.01	3.97031
41.02	3.98248
41.03	3.9861
41.04	3.97327
41.05	3.95978
41.06	3.96669
41.07	3.95616
41.08	3.97722
41.09	3.98116
41.1	4.03215
41.11	4.00518
41.12	3.97952
41.13	4.00419
41.14	3.98544
41.15	3.97261
41.16	3.99136
41.17	3.99761
41.18	4.00945
41.19	4.01011
41.2	3.98182
41.21	3.97294
41.22	3.96241
41.23	3.98807
41.24	3.99399
41.25	3.98709
41.26	3.93939
41.27	3.96833
41.28	3.97228
41.29	3.97623
41.3	3.99794
41.31	3.99268
41.32	3.97459
41.33	3.95485
41.34	3.97722
41.35	3.97064
41.36	4.00123
41.37	3.99136
41.38	3.97261
41.39	3.97459
41.4	3.98116
41.41	4.01965
41.42	3.99893
41.43	3.99761
41.44	3.99103
41.45	3.9963
41.46	4.00057
41.47	4.0009
41.48	3.9986
41.49	3.9759
41.5	3.98741
41.51	3.98511
41.52	3.98149
41.53	3.95649
41.54	3.97228
41.55	4.00156
41.56	3.9634
41.57	3.98084
41.58	4.01636
41.59	3.9838
41.6	3.99564
41.61	3.99334
41.62	3.99531
41.63	3.98643
41.64	4.00222
41.65	4.00649
41.66	3.98116
41.67	3.99235
41.68	3.95551
41.69	3.97722
41.7	3.97787
41.71	4.00353
41.72	4.02853
41.73	3.99169
41.74	3.99597
41.75	3.98643
41.76	3.99761
41.77	3.95715
41.78	3.9611
41.79	3.95254
41.8	3.96472
41.81	3.95847
41.82	4.03149
41.83	4.02886
41.84	3.98511
41.85	3.99268
41.86	3.92557
41.87	3.97393
41.88	4.00584
41.89	4.0009
41.9	3.94004
41.91	3.94465
41.92	3.9963
41.93	3.99663
41.94	3.99728
41.95	3.99498
41.96	3.96241
41.97	3.9884
41.98	3.9963
41.99	4.00682
42	3.98248
42.01	3.9657
42.02	3.98281
42.03	4.01899
42.04	3.9963
42.05	3.98018
42.06	4.01242
42.07	3.9611
42.08	3.98972
42.09	3.98215
42.1	3.98314
42.11	3.96702
42.12	4.00123
42.13	3.99334
42.14	3.9588
42.15	3.95254
42.16	3.98544
42.17	3.94926
42.18	3.98149
42.19	3.98215
42.2	3.97195
42.21	3.9736
42.22	4.0111
42.23	3.98084
42.24	3.98412
42.25	3.98511
42.26	3.97722
42.27	4.01077
42.28	4.00978
42.29	3.96801
42.3	3.98741
42.31	3.96241
42.32	3.96406
42.33	3.94235
42.34	3.97261
42.35	3.98741
42.36	3.95189
42.37	3.97952
42.38	3.98281
42.39	3.99334
42.4	4.00222
42.41	4.0032
42.42	3.9838
42.43	3.98906
42.44	3.99005
42.45	4.00189
42.46	4.00189
42.47	3.98544
42.48	3.96669
42.49	3.98939
42.5	4.00518
42.51	3.99564
42.52	3.95715
42.53	3.99991
42.54	4.03215
42.55	4.00485
42.56	3.94926
42.57	3.97491
42.58	3.98215
42.59	3.96176
42.6	3.96702
42.61	3.95518
42.62	3.97787
42.63	4.01307
42.64	3.95945
42.65	3.98972
42.66	3.98577
42.67	3.99531
42.68	3.98215
42.69	4.00748
42.7	3.95485
42.71	3.98741
42.72	3.94958
42.73	4.01209
42.74	4.02557
42.75	3.99761
42.76	3.98182
42.77	3.96965
42.78	3.96439
42.79	3.98544
42.8	3.95912
42.81	3.96011
42.82	3.97426
42.83	3.9759
42.84	3.96208
42.85	3.94695
42.86	3.95057
42.87	3.96472
42.88	4.00616
42.89	3.99728
42.9	3.96472
42.91	3.96274
42.92	3.96208
42.93	3.9588
42.94	3.95452
42.95	3.99169
42.96	3.99202
42.97	4.00814
42.98	3.99564
42.99	3.9838
43	3.9986
43.01	3.9884
43.02	3.97524
43.03	3.99136
43.04	3.99663
43.05	3.99531
43.06	3.98709
43.07	3.99663
43.08	3.97327
43.09	3.96373
43.1	3.98215
43.11	3.98412
43.12	3.95222
43.13	3.95254
43.14	3.98709
43.15	3.97097
43.16	3.97886
43.17	4.00781
43.18	4.00222
43.19	3.98018
43.2	3.99498
43.21	3.97261
43.22	3.99202
43.23	3.96735
43.24	4.00123
43.25	3.96801
43.26	3.98511
43.27	4.01209
43.28	3.9838
43.29	3.96899
43.3	3.95254
43.31	3.96505
43.32	3.97228
43.33	3.97524
43.34	3.99893
43.35	3.97524
43.36	3.97689
43.37	4.00518
43.38	4.01209
43.39	4.01505
43.4	4.01768
43.41	4.02853
43.42	3.97195
43.43	3.98709
43.44	3.95978
43.45	4.00616
43.46	3.98676
43.47	3.99465
43.48	3.97722
43.49	3.9634
43.5	4.00814
43.51	3.96439
43.52	4.01801
43.53	3.98577
43.54	3.99366
43.55	3.98281
43.56	4.01899
43.57	3.95649
43.58	3.99794
43.59	4.01899
43.6	3.97524
43.61	3.96537
43.62	3.99926
43.63	4.00978
43.64	3.96208
43.65	3.98939
43.66	3.96833
43.67	3.96636
43.68	3.97294
43.69	4.00386
43.7	3.95123
43.71	3.94004
43.72	3.97557
43.73	3.9782
43.74	3.98544
43.75	3.9782
43.76	4.00715
43.77	3.96241
43.78	3.97557
43.79	3.96241
43.8	3.97393
43.81	3.9509
43.82	3.95485
43.83	3.99136
43.84	4.01965
43.85	4.01307
43.86	3.97459
43.87	4.01274
43.88	4.00616
43.89	3.99663
43.9	3.97097
43.91	3.97327
43.92	4.00945
43.93	3.94662
43.94	3.95222
43.95	3.96472
43.96	3.98709
43.97	3.9782
43.98	3.95156
43.99	3.97097
44	3.99794
44.01	4.01373
44.02	3.97755
44.03	4.00485
44.04	3.9736
44.05	3.97491
44.06	3.98774
44.07	3.98939
44.08	4.00584
44.09	3.97524
44.1	3.94893
44.11	4.00715
44.12	3.95583
44.13	4.02294
44.14	4.00518
44.15	3.97261
44.16	3.93018
44.17	3.98478
44.18	3.97064
44.19	3.9305
44.2	3.97886
44.21	3.99038
44.22	3.99498
44.23	3.97294
44.24	3.98412
44.25	3.98544
44.26	3.9657
44.27	3.97294
44.28	3.96866
44.29	3.96965
44.3	3.97853
44.31	4.01669
44.32	3.99235
44.33	4.01834
44.34	4.03413
44.35	3.99663
44.36	4.00024
44.37	4.00024
44.38	3.96537
44.39	3.95518
44.4	3.98248
44.41	3.96373
44.42	3.97097
44.43	3.99663
44.44	3.95945
44.45	3.99991
44.46	3.99695
44.47	4.00024
44.48	4.0009
44.49	3.99663
44.5	3.99465
44.51	3.99695
44.52	4.00748
44.53	3.96044
44.54	3.96899
44.55	3.9963
44.56	3.97097
44.57	3.94991
44.58	3.97689
44.59	4.0157
44.6	4.00649
44.61	3.97228
44.62	3.96866
44.63	3.9963
44.64	3.9759
44.65	3.94695
44.66	3.98445
44.67	3.97261
44.68	3.97656
44.69	3.97656
44.7	3.99794
44.71	3.98972
44.72	3.98314
44.73	4.01768
44.74	3.97952
44.75	3.97459
44.76	3.97787
44.77	3.97491
44.78	3.9963
44.79	4.00978
44.8	3.97426
44.81	3.97459
44.82	3.9861
44.83	3.96801
44.84	4.00123
44.85	3.98215
44.86	3.95781
44.87	3.93018
44.88	3.95682
44.89	3.99465
44.9	3.98149
44.91	3.96833
44.92	3.98116
44.93	3.99432
44.94	3.99005
44.95	4.01998
44.96	3.98215
44.97	3.93544
44.98	3.96472
44.99	3.99926
45	3.96241
45.01	3.98577
45.02	3.96899
45.03	3.97557
45.04	3.98149
45.05	3.95715
45.06	3.9588
45.07	3.9838
45.08	3.97557
45.09	3.96833
45.1	4.01209
45.11	3.98018
45.12	3.96636
45.13	3.94531
45.14	3.95452
45.15	3.98774
45.16	3.99005
45.17	3.94235
45.18	4.00222
45.19	4.00452
45.2	3.96965
45.21	3.99827
45.22	3.96044
45.23	3.96998
45.24	3.98248
45.25	3.98347
45.26	3.97656
45.27	3.97623
45.28	4.00814
45.29	3.98774
45.3	4.01307
45.31	4.00452
45.32	3.9963
45.33	3.97524
45.34	3.96274
45.35	4.00288
45.36	4.02985
45.37	4.0384
45.38	4.01505
45.39	3.9782
45.4	3.99169
45.41	3.97491
45.42	4.02195
45.43	3.96505
45.44	3.99235
45.45	4.01143
45.46	4.01735
45.47	3.96965
45.48	4.01176
45.49	3.99268
45.5	3.98248
45.51	3.95419
45.52	3.98873
45.53	3.9963
45.54	3.96406
45.55	3.99399
45.56	3.98281
45.57	3.97919
45.58	4.00715
45.59	3.97722
45.6	3.93445
45.61	3.93478
45.62	3.94399
45.63	3.97491
45.64	3.9963
45.65	3.97787
45.66	3.98939
45.67	3.98182
45.68	3.98281
45.69	3.98215
45.7	3.96208
45.71	3.97722
45.72	3.99399
45.73	3.97031
45.74	3.96537
45.75	3.98248
45.76	3.99334
45.77	3.9657
45.78	3.96044
45.79	3.96965
45.8	3.96077
45.81	3.99301
45.82	3.97886
45.83	3.99399
45.84	3.99564
45.85	3.99334
45.86	3.96077
45.87	3.95419
45.88	3.97557
45.89	3.97656
45.9	3.97064
45.91	4.01965
45.92	4.00156
45.93	4.00452
45.94	4.00616
45.95	3.99202
45.96	4.00518
45.97	3.99564
45.98	4.01538
45.99	3.99334
46	4.02689
46.01	3.99334
46.02	4.01209
46.03	3.99663
46.04	3.97459
46.05	3.92491
46.06	4.01603
46.07	3.97689
46.08	3.98215
46.09	3.98116
46.1	3.97557
46.11	3.97097
46.12	3.98116
46.13	3.96702
46.14	3.93906
46.15	4.01603
46.16	3.94926
46.17	3.99564
46.18	3.96472
46.19	3.94958
46.2	3.9384
46.21	3.9361
46.22	3.97294
46.23	4.00452
46.24	4.02722
46.25	4.02821
46.26	3.97886
46.27	3.98939
46.28	3.98149
46.29	4.00189
46.3	4.01439
46.31	3.98906
46.32	3.96965
46.33	3.96044
46.34	3.95912
46.35	3.95945
46.36	3.99597
46.37	3.97261
46.38	3.96011
46.39	3.97162
46.4	4.00156
46.41	3.99169
46.42	3.95945
46.43	4.00616
46.44	3.96866
46.45	3.99399
46.46	3.97393
46.47	3.99103
46.48	4.01538
46.49	4.03248
46.5	3.97426
46.51	3.97031
46.52	3.98215
46.53	4.00189
46.54	4.03939
46.55	3.98412
46.56	3.98774
46.57	3.9759
46.58	3.98149
46.59	4.0032
46.6	3.99761
46.61	3.95912
46.62	3.93248
46.63	3.99498
46.64	4.01242
46.65	3.97162
46.66	3.97459
46.67	3.99366
46.68	3.98248
46.69	3.98182
46.7	3.98478
46.71	3.97393
46.72	4.00189
46.73	3.96274
46.74	4.00814
46.75	3.99695
46.76	3.96537
46.77	3.96274
46.78	3.97755
46.79	3.99498
46.8	4.00189
46.81	3.9736
46.82	4.00156
46.83	4.00024
46.84	4.0032
46.85	3.99597
46.86	3.97623
46.87	3.99301
46.88	3.96998
46.89	3.96833
46.9	3.94103
46.91	3.9713
46.92	3.97886
46.93	3.99827
46.94	3.97162
46.95	3.97459
46.96	3.99794
46.97	3.95551
46.98	3.99399
46.99	3.95814
47	3.98018
47.01	3.9861
47.02	3.99597
47.03	3.99301
47.04	3.97294
47.05	3.96636
47.06	3.98412
47.07	3.97524
47.08	4.00682
47.09	4.00485
47.1	3.9861
47.11	3.97722
47.12	3.96833
47.13	3.96603
47.14	3.96998
47.15	3.99268
47.16	3.99399
47.17	3.98709
47.18	3.95781
47.19	3.93314
47.2	3.95189
47.21	3.98116
47.22	3.9634
47.23	3.99038
47.24	3.99301
47.25	3.96439
47.26	3.97162
47.27	3.99794
47.28	4.02821
47.29	3.94728
47.3	3.94991
47.31	3.96735
47.32	3.98643
47.33	3.99991
47.34	3.99202
47.35	3.97294
47.36	3.95353
47.37	3.94235
47.38	3.97722
47.39	4.00419
47.4	3.99728
47.41	3.97426
47.42	3.9759
47.43	3.96735
47.44	3.94794
47.45	3.99334
47.46	3.94827
47.47	3.97853
47.48	3.98774
47.49	3.98116
47.5	4.00518
47.51	3.96866
47.52	3.98544
47.53	4.01965
47.54	3.96899
47.55	3.97524
47.56	3.97689
47.57	3.99038
47.58	3.99235
47.59	3.97886
47.6	4.00518
47.61	3.9861
47.62	3.99005
47.63	3.99268
47.64	4.00978
47.65	3.96143
47.66	3.98149
47.67	3.9782
47.68	4.01143
47.69	3.99169
47.7	3.97195
47.71	4.0134
47.72	4.0088
47.73	3.98149
47.74	3.96044
47.75	3.97886
47.76	3.97195
47.77	3.99728
47.78	3.96998
47.79	4.00123
47.8	3.98544
47.81	3.97294
47.82	3.94498
47.83	3.98741
47.84	3.98741
47.85	3.9782
47.86	3.9861
47.87	3.96439
47.88	3.99235
47.89	3.96603
47.9	3.97623
47.91	3.96307
47.92	3.96307
47.93	3.98445
47.94	3.96537
47.95	3.95419
47.96	3.95419
47.97	3.96274
47.98	3.97064
47.99	3.9657
48	3.97722
48.01	3.97393
48.02	3.96998
48.03	4.00222
48.04	3.99498
48.05	4.0009
48.06	3.96077
48.07	3.95123
48.08	3.97623
48.09	3.97689
48.1	3.9657
48.11	4.00485
48.12	3.99991
48.13	3.95254
48.14	4.00847
48.15	3.98412
48.16	3.94893
48.17	3.9305
48.18	4.01538
48.19	4.00222
48.2	3.99893
48.21	3.97294
48.22	3.91965
48.23	3.94761
48.24	3.96899
48.25	3.94366
48.26	3.97689
48.27	3.96011
48.28	3.98906
48.29	3.97162
48.3	3.9713
48.31	3.97393
48.32	3.95781
48.33	3.96768
48.34	3.9713
48.35	3.9736
48.36	3.96669
48.37	3.99761
48.38	3.95715
48.39	3.98347
48.4	3.97162
48.41	3.96274
48.42	3.96603
48.43	3.97985
48.44	3.98676
48.45	4.00913
48.46	3.99531
48.47	4.01998
48.48	3.98149
48.49	3.98314
48.5	3.97623
48.51	3.97031
48.52	3.99432
48.53	4.00386
48.54	3.99991
48.55	3.97261
48.56	3.96044
48.57	3.96735
48.58	3.93577
48.59	3.9361
48.6	3.94991
48.61	4.00518
48.62	4.00715
48.63	3.99432
48.64	3.9634
48.65	3.95682
48.66	3.98709
48.67	3.97755
48.68	3.96702
48.69	3.9963
48.7	4.01077
48.71	3.95748
48.72	3.97031
48.73	3.97459
48.74	3.98643
48.75	3.9634
48.76	3.9782
48.77	3.97853
48.78	3.96768
48.79	3.96439
48.8	4.00288
48.81	3.99531
48.82	4.00452
48.83	4.02623
48.84	3.9634
48.85	3.95222
48.86	3.98972
48.87	4.00781
48.88	4.00978
48.89	3.98807
48.9	3.98939
48.91	3.97162
48.92	3.98873
48.93	3.9884
48.94	4.00222
48.95	3.96537
48.96	3.96833
48.97	3.96833
48.98	3.96176
48.99	3.95847
49	3.93708
49.01	3.97097
49.02	3.98281
49.03	3.9907
49.04	3.98445
49.05	4.00682
49.06	3.97524
49.07	3.97261
49.08	3.97294
49.09	3.98676
49.1	3.95616
49.11	3.95978
49.12	3.99991
49.13	4.00452
49.14	3.95551
49.15	3.95715
49.16	3.9361
49.17	3.96241
49.18	3.9486
49.19	3.94926
49.2	3.97755
49.21	3.95452
49.22	3.95419
49.23	3.94761
49.24	3.95386
49.25	3.96932
49.26	4.00485
49.27	3.97623
49.28	3.96274
49.29	3.97755
49.3	3.98248
49.31	3.97623
49.32	3.98182
49.33	3.99695
49.34	4.01768
49.35	3.99926
49.36	4.0032
49.37	3.97985
49.38	3.98248
49.39	3.98116
49.4	4.00024
49.41	3.96537
49.42	4.01834
49.43	3.97327
49.44	3.96603
49.45	3.97459
49.46	3.98314
49.47	3.96537
49.48	3.9986
49.49	3.98182
49.5	3.96669
49.51	3.96998
49.52	3.98084
49.53	3.99432
49.54	4.00518
49.55	4.00814
49.56	3.97195
49.57	3.99136
49.58	3.9634
49.59	3.9486
49.6	3.98478
49.61	3.98445
49.62	3.97393
49.63	3.92919
49.64	3.9884
49.65	3.96439
49.66	3.94301
49.67	3.96044
49.68	3.94531
49.69	3.94268
49.7	3.99794
49.71	3.95781
49.72	3.99103
49.73	3.99926
49.74	3.99498
49.75	3.99038
49.76	3.97886
49.77	4.00255
49.78	3.98445
49.79	3.94629
49.8	3.9782
49.81	3.99038
49.82	3.94991
49.83	3.98281
49.84	3.99136
49.85	3.94991
49.86	3.98511
49.87	3.97689
49.88	3.98116
49.89	3.99728
49.9	4.0111
49.91	3.98873
49.92	3.97656
49.93	3.9713
49.94	4.00649
49.95	3.99038
49.96	3.98774
49.97	3.93643
49.98	3.99136
49.99	3.9736
50	3.98511
