"BIO-KINE ASCII FILE"
"_COMMENT"	"MOS-500 Spectrometer"
"_COMMENT"	"Kinetics measurement"
"_COMMENT"	"Y Unit : Volt,  X Unit : s"
"_COMMENT"	"Excitation wavelength : 380 nm"
"_COMMENT"	"Fentes bandwidth =  1 nm"
"_COMMENT"	"HV= 700V"
"_COMMENT"	"Timebase  1 =  .01 s   3001 pts"
"_SFM"	"SFM-400 /S  Advanced mode"
"_SFM"	"Ratio : S1: 2.5, S2: 0, S3: 0, S4: 1"
"_SFM"	"Content : S1: , S2: , S3: , S4:"
"_SFM"	"Concentration : S1: , S2: , S3: , S4:"
"_SFM"	"Total volume : 209 µl  Flow : 3.5 mL/s"
"_SFM"	"Acquisition start :  10 ms before stop"
"_SFM"	"cuve=FC-15, s1=10 ml , s2=10 ml , s3=10 ml , s4=1.9 ml"
"_UNITX"	"s"
"_UNITY"	"Volt"
"_DELTAX"	0
"_DATA"
1e-300	7.96746
0.01	8.6336
0.02	8.80761
0.03	8.79676
0.04	8.81748
0.05	8.82307
0.06	8.82603
0.07	8.83261
0.08	8.83261
0.09	8.84709
0.1	8.8336
0.11	8.83261
0.12	8.84676
0.13	8.84774
0.14	8.84413
0.15	8.84314
0.16	8.83623
0.17	8.83195
0.18	8.82932
0.19	8.84544
0.2	8.83492
0.21	8.8359
0.22	8.82899
0.23	8.82505
0.24	8.83557
0.25	8.8234
0.26	8.80827
0.27	8.81419
0.28	8.80103
0.29	8.80564
0.3	8.80893
0.31	8.79018
0.32	8.78228
0.33	8.78228
0.34	8.77899
0.35	8.76222
0.36	8.76386
0.37	8.74708
0.38	8.76024
0.39	8.74741
0.4	8.73129
0.41	8.73623
0.42	8.74478
0.43	8.72801
0.44	8.72044
0.45	8.71222
0.46	8.71386
0.47	8.69939
0.48	8.69149
0.49	8.68557
0.5	8.69544
0.51	8.65629
0.52	8.65827
0.53	8.66715
0.54	8.65991
0.55	8.64445
0.56	8.64248
0.57	8.64248
0.58	8.64248
0.59	8.61188
0.6	8.60333
0.61	8.61682
0.62	8.61419
0.63	8.59774
0.64	8.59577
0.65	8.58524
0.66	8.58327
0.67	8.58294
0.68	8.55267
0.69	8.56188
0.7	8.55958
0.71	8.54083
0.72	8.55004
0.73	8.53721
0.74	8.54412
0.75	8.52899
0.76	8.51813
0.77	8.51451
0.78	8.51188
0.79	8.50234
0.8	8.50859
0.81	8.48458
0.82	8.48195
0.83	8.48688
0.84	8.46945
0.85	8.47109
0.86	8.46418
0.87	8.45892
0.88	8.46451
0.89	8.45366
0.9	8.45431
0.91	8.42471
0.92	8.42405
0.93	8.41616
0.94	8.42043
0.95	8.39708
0.96	8.38063
0.97	8.38787
0.98	8.38293
0.99	8.37569
1	8.37339
1.01	8.36254
1.02	8.35004
1.03	8.34313
1.04	8.32569
1.05	8.35168
1.06	8.33161
1.07	8.31648
1.08	8.31714
1.09	8.30431
1.1	8.29313
1.11	8.30596
1.12	8.28951
1.13	8.28918
1.14	8.27898
1.15	8.28589
1.16	8.2599
1.17	8.24773
1.18	8.25201
1.19	8.25267
1.2	8.24642
1.21	8.23556
1.22	8.22964
1.23	8.22339
1.24	8.21681
1.25	8.20957
1.26	8.20464
1.27	8.20135
1.28	8.19247
1.29	8.18918
1.3	8.17503
1.31	8.16845
1.32	8.16352
1.33	8.15562
1.34	8.15661
1.35	8.13556
1.36	8.13424
1.37	8.1474
1.38	8.12569
1.39	8.12273
1.4	8.11582
1.41	8.0997
1.42	8.09641
1.43	8.09082
1.44	8.07371
1.45	8.06714
1.46	8.07766
1.47	8.06023
1.48	8.04871
1.49	8.03654
1.5	8.03424
1.51	8.02569
1.52	8.03062
1.53	8.01615
1.54	8.02042
1.55	8.02174
1.56	8.00595
1.57	7.98917
1.58	7.99411
1.59	7.99411
1.6	7.97108
1.61	7.97042
1.62	7.96976
1.63	7.95957
1.64	7.95562
1.65	7.95266
1.66	7.95003
1.67	7.93687
1.68	7.92963
1.69	7.91318
1.7	7.91812
1.71	7.90496
1.72	7.88555
1.73	7.88851
1.74	7.89476
1.75	7.87305
1.76	7.86318
1.77	7.86647
1.78	7.86417
1.79	7.85035
1.8	7.84937
1.81	7.84476
1.82	7.83588
1.83	7.82766
1.84	7.81351
1.85	7.81088
1.86	7.8145
1.87	7.81121
1.88	7.80923
1.89	7.77568
1.9	7.76614
1.91	7.7668
1.92	7.75989
1.93	7.75989
1.94	7.7418
1.95	7.74377
1.96	7.74871
1.97	7.72996
1.98	7.73588
1.99	7.71746
2	7.7089
2.01	7.70199
2.02	7.6964
2.03	7.69081
2.04	7.67634
2.05	7.66976
2.06	7.67074
2.07	7.6691
2.08	7.66811
2.09	7.6566
2.1	7.63851
2.11	7.63916
2.12	7.64212
2.13	7.62699
2.14	7.62897
2.15	7.6168
2.16	7.59837
2.17	7.60068
2.18	7.60166
2.19	7.59443
2.2	7.5816
2.21	7.57272
2.22	7.57272
2.23	7.57272
2.24	7.56778
2.25	7.5635
2.26	7.55199
2.27	7.55989
2.28	7.551
2.29	7.54048
2.3	7.51975
2.31	7.52699
2.32	7.52337
2.33	7.51054
2.34	7.51054
2.35	7.50265
2.36	7.4783
2.37	7.47567
2.38	7.47929
2.39	7.46646
2.4	7.46383
2.41	7.45692
2.42	7.45495
2.43	7.45265
2.44	7.45758
2.45	7.43587
2.46	7.42238
2.47	7.41186
2.48	7.41416
2.49	7.40922
2.5	7.40758
2.51	7.39343
2.52	7.39113
2.53	7.37797
2.54	7.37403
2.55	7.36087
2.56	7.34935
2.57	7.35593
2.58	7.33587
2.59	7.32106
2.6	7.31745
2.61	7.32106
2.62	7.31547
2.63	7.28554
2.64	7.27698
2.65	7.28389
2.66	7.29113
2.67	7.28126
2.68	7.27008
2.69	7.26975
2.7	7.26547
2.71	7.2408
2.72	7.24244
2.73	7.24113
2.74	7.23981
2.75	7.24836
2.76	7.22238
2.77	7.21711
2.78	7.20889
2.79	7.21284
2.8	7.20396
2.81	7.18192
2.82	7.17632
2.83	7.17501
2.84	7.16645
2.85	7.16053
2.86	7.16678
2.87	7.14836
2.88	7.12895
2.89	7.13488
2.9	7.1431
2.91	7.13191
2.92	7.12073
2.93	7.11284
2.94	7.10099
2.95	7.1033
2.96	7.09639
2.97	7.08257
2.98	7.09244
2.99	7.07632
3	7.07303
3.01	7.06908
3.02	7.05165
3.03	7.06086
3.04	7.05428
3.05	7.04902
3.06	7.04277
3.07	7.02764
3.08	7.03685
3.09	7.03487
3.1	7.01546
3.11	7.0079
3.12	6.9977
3.13	6.98619
3.14	6.98224
3.15	6.98059
3.16	6.96974
3.17	6.96842
3.18	6.96283
3.19	6.95559
3.2	6.95329
3.21	6.95494
3.22	6.95592
3.23	6.9454
3.24	6.92994
3.25	6.93487
3.26	6.93454
3.27	6.91711
3.28	6.91678
3.29	6.9079
3.3	6.89704
3.31	6.90165
3.32	6.88651
3.33	6.88586
3.34	6.89441
3.35	6.87928
3.36	6.87039
3.37	6.85855
3.38	6.8602
3.39	6.84638
3.4	6.84835
3.41	6.8296
3.42	6.82566
3.43	6.82697
3.44	6.82533
3.45	6.81612
3.46	6.82566
3.47	6.82302
3.48	6.80066
3.49	6.78914
3.5	6.7977
3.51	6.79112
3.52	6.77269
3.53	6.77927
3.54	6.77631
3.55	6.77434
3.56	6.7569
3.57	6.7523
3.58	6.75658
3.59	6.7444
3.6	6.75131
3.61	6.73355
3.62	6.71809
3.63	6.7023
3.64	6.71217
3.65	6.70625
3.66	6.70855
3.67	6.70526
3.68	6.69736
3.69	6.68585
3.7	6.68881
3.71	6.67861
3.72	6.67598
3.73	6.66282
3.74	6.65723
3.75	6.6421
3.76	6.64802
3.77	6.63651
3.78	6.63453
3.79	6.63256
3.8	6.63157
3.81	6.6273
3.82	6.62532
3.83	6.62203
3.84	6.60789
3.85	6.60032
3.86	6.58651
3.87	6.58058
3.88	6.57762
3.89	6.57697
3.9	6.57368
3.91	6.56249
3.92	6.57532
3.93	6.54966
3.94	6.56085
3.95	6.54506
3.96	6.53749
3.97	6.52762
3.98	6.52071
3.99	6.51545
4	6.51249
4.01	6.51808
4.02	6.5046
4.03	6.50427
4.04	6.50131
4.05	6.49802
4.06	6.47038
4.07	6.47302
4.08	6.48288
4.09	6.47663
4.1	6.46677
4.11	6.46742
4.12	6.46051
4.13	6.44867
4.14	6.44111
4.15	6.44801
4.16	6.43124
4.17	6.424
4.18	6.42137
4.19	6.40755
4.2	6.41545
4.21	6.42005
4.22	6.40032
4.23	6.40459
4.24	6.3865
4.25	6.39045
4.26	6.38387
4.27	6.3865
4.28	6.37564
4.29	6.37005
4.3	6.36413
4.31	6.36117
4.32	6.35788
4.33	6.34571
4.34	6.349
4.35	6.33321
4.36	6.33946
4.37	6.33485
4.38	6.32301
4.39	6.31314
4.4	6.31939
4.41	6.31512
4.42	6.30821
4.43	6.31347
4.44	6.29834
4.45	6.29702
4.46	6.29341
4.47	6.28123
4.48	6.27564
4.49	6.28156
4.5	6.26906
4.51	6.26281
4.52	6.25919
4.53	6.25459
4.54	6.24702
4.55	6.25229
4.56	6.24604
4.57	6.24472
4.58	6.23682
4.59	6.22761
4.6	6.22202
4.61	6.21643
4.62	6.22301
4.63	6.21709
4.64	6.21676
4.65	6.19965
4.66	6.19801
4.67	6.19472
4.68	6.19077
4.69	6.17992
4.7	6.1809
4.71	6.18978
4.72	6.18452
4.73	6.16544
4.74	6.16906
4.75	6.14505
4.76	6.15689
4.77	6.15195
4.78	6.14866
4.79	6.14537
4.8	6.14537
4.81	6.13287
4.82	6.12991
4.83	6.1388
4.84	6.13649
4.85	6.12366
4.86	6.12301
4.87	6.10919
4.88	6.10656
4.89	6.11577
4.9	6.11182
4.91	6.09932
4.92	6.09011
4.93	6.07925
4.94	6.07629
4.95	6.07498
4.96	6.08057
4.97	6.07136
4.98	6.06149
4.99	6.05623
5	6.04735
5.01	6.04438
5.02	6.03057
5.03	6.03781
5.04	6.04406
5.05	6.03419
5.06	6.02498
5.07	6.01708
5.08	6.01215
5.09	6.01248
5.1	6.00327
5.11	6.00655
5.12	5.998
5.13	5.99636
5.14	5.98682
5.15	5.99702
5.16	5.98912
5.17	5.9832
5.18	5.97399
5.19	5.97103
5.2	5.96905
5.21	5.96511
5.22	5.95524
5.23	5.9605
5.24	5.95557
5.25	5.95787
5.26	5.95261
5.27	5.93649
5.28	5.94241
5.29	5.93254
5.3	5.92761
5.31	5.93517
5.32	5.92761
5.33	5.92366
5.34	5.91313
5.35	5.91642
5.36	5.90721
5.37	5.89635
5.38	5.89471
5.39	5.89175
5.4	5.87497
5.41	5.89274
5.42	5.88385
5.43	5.88583
5.44	5.87399
5.45	5.87497
5.46	5.87102
5.47	5.85195
5.48	5.86247
5.49	5.86708
5.5	5.8628
5.51	5.8651
5.52	5.85622
5.53	5.84208
5.54	5.83319
5.55	5.82826
5.56	5.83385
5.57	5.82596
5.58	5.8253
5.59	5.82859
5.6	5.81839
5.61	5.81675
5.62	5.81576
5.63	5.81938
5.64	5.81115
5.65	5.79767
5.66	5.80688
5.67	5.80754
5.68	5.79997
5.69	5.79635
5.7	5.79438
5.71	5.79043
5.72	5.77925
5.73	5.76609
5.74	5.77497
5.75	5.76905
5.76	5.76872
5.77	5.75753
5.78	5.75128
5.79	5.75786
5.8	5.75655
5.81	5.74405
5.82	5.74734
5.83	5.73747
5.84	5.72826
5.85	5.74076
5.86	5.73155
5.87	5.72267
5.88	5.72299
5.89	5.71345
5.9	5.7072
5.91	5.71707
5.92	5.71148
5.93	5.71576
5.94	5.70852
5.95	5.70523
5.96	5.69569
5.97	5.69141
5.98	5.68615
5.99	5.69076
6	5.68352
6.01	5.68714
6.02	5.6822
6.03	5.67102
6.04	5.66806
6.05	5.66641
6.06	5.65622
6.07	5.66707
6.08	5.66082
6.09	5.64865
6.1	5.64339
6.11	5.6447
6.12	5.64964
6.13	5.63648
6.14	5.64372
6.15	5.64372
6.16	5.63187
6.17	5.63714
6.18	5.62793
6.19	5.62365
6.2	5.62628
6.21	5.61937
6.22	5.60325
6.23	5.59437
6.24	5.59667
6.25	5.59733
6.26	5.60523
6.27	5.59799
6.28	5.60062
6.29	5.58615
6.3	5.59141
6.31	5.58483
6.32	5.58516
6.33	5.58812
6.34	5.58088
6.35	5.5697
6.36	5.56871
6.37	5.58187
6.38	5.57003
6.39	5.57332
6.4	5.57233
6.41	5.55259
6.42	5.55753
6.43	5.55062
6.44	5.55325
6.45	5.54733
6.46	5.55292
6.47	5.55588
6.48	5.54865
6.49	5.53713
6.5	5.53319
6.51	5.52069
6.52	5.51838
6.53	5.51937
6.54	5.52069
6.55	5.5095
6.56	5.49832
6.57	5.50819
6.58	5.51082
6.59	5.51608
6.6	5.5049
6.61	5.50062
6.62	5.49108
6.63	5.49667
6.64	5.49272
6.65	5.48976
6.66	5.48022
6.67	5.49404
6.68	5.48549
6.69	5.48253
6.7	5.47068
6.71	5.46904
6.72	5.48483
6.73	5.46246
6.74	5.46904
6.75	5.4697
6.76	5.4595
6.77	5.44601
6.78	5.46542
6.79	5.45522
6.8	5.44799
6.81	5.4493
6.82	5.45193
6.83	5.45128
6.84	5.44305
6.85	5.43549
6.86	5.44568
6.87	5.43746
6.88	5.43549
6.89	5.44338
6.9	5.43417
6.91	5.42693
6.92	5.42726
6.93	5.42627
6.94	5.42266
6.95	5.42068
6.96	5.41345
6.97	5.41016
6.98	5.42233
6.99	5.41312
7	5.41443
7.01	5.4243
7.02	5.41575
7.03	5.39864
7.04	5.40654
7.05	5.3993
7.06	5.39009
7.07	5.37726
7.08	5.38384
7.09	5.38548
7.1	5.37331
7.11	5.38877
7.12	5.39469
7.13	5.37594
7.14	5.37167
7.15	5.36443
7.16	5.36114
7.17	5.35555
7.18	5.36311
7.19	5.36937
7.2	5.3664
7.21	5.36279
7.22	5.34469
7.23	5.34239
7.24	5.34864
7.25	5.34173
7.26	5.34568
7.27	5.33318
7.28	5.33713
7.29	5.34601
7.3	5.33417
7.31	5.33713
7.32	5.34469
7.33	5.33252
7.34	5.32101
7.35	5.31476
7.36	5.3266
7.37	5.33318
7.38	5.32232
7.39	5.31213
7.4	5.32002
7.41	5.3118
7.42	5.30193
7.43	5.30884
7.44	5.31081
7.45	5.30292
7.46	5.29403
7.47	5.29798
7.48	5.28515
7.49	5.29338
7.5	5.28482
7.51	5.29765
7.52	5.28647
7.53	5.27824
7.54	5.27331
7.55	5.26607
7.56	5.27134
7.57	5.26081
7.58	5.26015
7.59	5.26739
7.6	5.27232
7.61	5.26903
7.62	5.25752
7.63	5.26278
7.64	5.26838
7.65	5.2664
7.66	5.26015
7.67	5.26081
7.68	5.25587
7.69	5.25818
7.7	5.2618
7.71	5.24469
7.72	5.24831
7.73	5.24831
7.74	5.24206
7.75	5.23976
7.76	5.23482
7.77	5.23416
7.78	5.23318
7.79	5.2368
7.8	5.24173
7.81	5.23581
7.82	5.22397
7.83	5.2289
7.84	5.2289
7.85	5.23219
7.86	5.23647
7.87	5.21114
7.88	5.21936
7.89	5.21739
7.9	5.21311
7.91	5.21706
7.92	5.20949
7.93	5.20719
7.94	5.2016
7.95	5.20489
7.96	5.19765
7.97	5.20982
7.98	5.20291
7.99	5.19206
8	5.19666
8.01	5.18975
8.02	5.18285
8.03	5.18153
8.04	5.18054
8.05	5.18778
8.06	5.17331
8.07	5.17627
8.08	5.17627
8.09	5.16706
8.1	5.16771
8.11	5.16903
8.12	5.16804
8.13	5.1687
8.14	5.16442
8.15	5.15817
8.16	5.16574
8.17	5.17035
8.18	5.16311
8.19	5.15357
8.2	5.15488
8.21	5.16146
8.22	5.16114
8.23	5.15258
8.24	5.1516
8.25	5.14206
8.26	5.14896
8.27	5.1437
8.28	5.13712
8.29	5.15587
8.3	5.14863
8.31	5.13877
8.32	5.1391
8.33	5.13219
8.34	5.12956
8.35	5.13186
8.36	5.13581
8.37	5.13581
8.38	5.13482
8.39	5.13844
8.4	5.13581
8.41	5.12462
8.42	5.12166
8.43	5.12462
8.44	5.1187
8.45	5.12166
8.46	5.12002
8.47	5.12034
8.48	5.12067
8.49	5.11574
8.5	5.11015
8.51	5.11212
8.52	5.12034
8.53	5.11804
8.54	5.09798
8.55	5.08219
8.56	5.09896
8.57	5.10258
8.58	5.1108
8.59	5.10028
8.6	5.08909
8.61	5.09271
8.62	5.09501
8.63	5.09995
8.64	5.09567
8.65	5.09008
8.66	5.08284
8.67	5.10291
8.68	5.10094
8.69	5.09567
8.7	5.08909
8.71	5.09765
8.72	5.09173
8.73	5.09699
8.74	5.09436
8.75	5.08054
8.76	5.07725
8.77	5.07297
8.78	5.08646
8.79	5.08153
8.8	5.07725
8.81	5.0664
8.82	5.06969
8.83	5.06705
8.84	5.06738
8.85	5.07067
8.86	5.06212
8.87	5.06705
8.88	5.06475
8.89	5.06015
8.9	5.05587
8.91	5.0562
8.92	5.05357
8.93	5.05686
8.94	5.05883
8.95	5.04863
8.96	5.046
8.97	5.05192
8.98	5.04633
8.99	5.0562
9	5.04666
9.01	5.04534
9.02	5.04271
9.03	5.05291
9.04	5.04534
9.05	5.04271
9.06	5.0335
9.07	5.04633
9.08	5.03547
9.09	5.0312
9.1	5.0312
9.11	5.03975
9.12	5.02955
9.13	5.02922
9.14	5.02593
9.15	5.03021
9.16	5.02922
9.17	5.02955
9.18	5.0312
9.19	5.02429
9.2	5.01409
9.21	5.01738
9.22	5.01903
9.23	5.01541
9.24	5.02166
9.25	5.00685
9.26	5.0108
9.27	5.01837
9.28	5.01245
9.29	5.00883
9.3	5.0062
9.31	5.00258
9.32	5.01245
9.33	5.00455
9.34	5.00389
9.35	5.00126
9.36	5.00718
9.37	5.00949
9.38	4.98745
9.39	4.99402
9.4	4.98745
9.41	4.98481
9.42	4.99468
9.43	4.99534
9.44	4.99106
9.45	4.98942
9.46	4.99074
9.47	4.98087
9.48	4.9835
9.49	4.98712
9.5	4.98284
9.51	4.99172
9.52	4.97955
9.53	4.99106
9.54	4.98416
9.55	4.97988
9.56	4.97527
9.57	4.97363
9.58	4.97626
9.59	4.98021
9.6	4.96508
9.61	4.97527
9.62	4.97527
9.63	4.9733
9.64	4.971
9.65	4.96606
9.66	4.9687
9.67	4.96343
9.68	4.95718
9.69	4.96771
9.7	4.96705
9.71	4.96047
9.72	4.95159
9.73	4.95027
9.74	4.95291
9.75	4.94337
9.76	4.94633
9.77	4.95192
9.78	4.95488
9.79	4.95718
9.8	4.95817
9.81	4.95652
9.82	4.94797
9.83	4.94435
9.84	4.96014
9.85	4.95389
9.86	4.95027
9.87	4.94665
9.88	4.94797
9.89	4.94863
9.9	4.95784
9.91	4.95784
9.92	4.95323
9.93	4.94534
9.94	4.95356
9.95	4.9381
9.96	4.94797
9.97	4.93646
9.98	4.94797
9.99	4.9358
10	4.95159
10.01	4.9506
10.02	4.92758
10.03	4.92922
10.04	4.93152
10.05	4.94337
10.06	4.946
10.07	4.93021
10.08	4.93975
10.09	4.93087
10.1	4.93021
10.11	4.92725
10.12	4.93021
10.13	4.93481
10.14	4.92165
10.15	4.92461
10.16	4.92659
10.17	4.9335
10.18	4.921
10.19	4.92856
10.2	4.92429
10.21	4.91836
10.22	4.91442
10.23	4.9131
10.24	4.92198
10.25	4.92198
10.26	4.921
10.27	4.91606
10.28	4.92198
10.29	4.90915
10.3	4.9029
10.31	4.89764
10.32	4.896
10.33	4.90356
10.34	4.90948
10.35	4.90027
10.36	4.90323
10.37	4.91211
10.38	4.90554
10.39	4.90225
10.4	4.89271
10.41	4.89896
10.42	4.90257
10.43	4.9029
10.44	4.89534
10.45	4.90389
10.46	4.89435
10.47	4.8983
10.48	4.89271
10.49	4.89567
10.5	4.88876
10.51	4.90192
10.52	4.9006
10.53	4.88843
10.54	4.88909
10.55	4.88448
10.56	4.88975
10.57	4.89402
10.58	4.87692
10.59	4.89007
10.6	4.88843
10.61	4.88909
10.62	4.87889
10.63	4.88119
10.64	4.88053
10.65	4.88711
10.66	4.88053
10.67	4.88053
10.68	4.88185
10.69	4.87889
10.7	4.87922
10.71	4.87593
10.72	4.88185
10.73	4.87724
10.74	4.87724
10.75	4.88613
10.76	4.88152
10.77	4.88547
10.78	4.88086
10.79	4.87264
10.8	4.87659
10.81	4.88284
10.82	4.87593
10.83	4.87626
10.84	4.8756
10.85	4.86705
10.86	4.88021
10.87	4.86836
10.88	4.87264
10.89	4.87165
10.9	4.86771
10.91	4.87823
10.92	4.86902
10.93	4.87231
10.94	4.86869
10.95	4.86343
10.96	4.87067
10.97	4.8779
10.98	4.86047
10.99	4.86343
11	4.87198
11.01	4.86376
11.02	4.86573
11.03	4.84994
11.04	4.85455
11.05	4.8506
11.06	4.84961
11.07	4.8483
11.08	4.8654
11.09	4.85422
11.1	4.8404
11.11	4.84698
11.12	4.84336
11.13	4.84238
11.14	4.85751
11.15	4.8506
11.16	4.87198
11.17	4.84501
11.18	4.82626
11.19	4.84402
11.2	4.84501
11.21	4.84501
11.22	4.83876
11.23	4.84863
11.24	4.8358
11.25	4.84073
11.26	4.84172
11.27	4.84797
11.28	4.84106
11.29	4.83777
11.3	4.84402
11.31	4.8427
11.32	4.82066
11.33	4.82494
11.34	4.83514
11.35	4.83613
11.36	4.83251
11.37	4.84567
11.38	4.82264
11.39	4.83876
11.4	4.83448
11.41	4.83711
11.42	4.82362
11.43	4.82922
11.44	4.82757
11.45	4.84106
11.46	4.84172
11.47	4.8302
11.48	4.83086
11.49	4.81935
11.5	4.83119
11.51	4.83415
11.52	4.83185
11.53	4.8256
11.54	4.8279
11.55	4.82264
11.56	4.82395
11.57	4.8358
11.58	4.82724
11.59	4.83185
11.6	4.82955
11.61	4.82757
11.62	4.83547
11.63	4.82823
11.64	4.82264
11.65	4.82362
11.66	4.82757
11.67	4.83053
11.68	4.81507
11.69	4.82428
11.7	4.82264
11.71	4.81573
11.72	4.81935
11.73	4.82428
11.74	4.82034
11.75	4.79632
11.76	4.8108
11.77	4.81277
11.78	4.81737
11.79	4.81211
11.8	4.80323
11.81	4.81803
11.82	4.8108
11.83	4.80948
11.84	4.80816
11.85	4.80948
11.86	4.79797
11.87	4.7983
11.88	4.81047
11.89	4.80915
11.9	4.81441
11.91	4.80718
11.92	4.80783
11.93	4.8108
11.94	4.8029
11.95	4.80487
11.96	4.78678
11.97	4.79928
11.98	4.80718
11.99	4.80619
12	4.81112
12.01	4.79533
12.02	4.81178
12.03	4.81277
12.04	4.80487
12.05	4.7983
12.06	4.79862
12.07	4.81047
12.08	4.79468
12.09	4.80191
12.1	4.80389
12.11	4.80981
12.12	4.80487
12.13	4.79698
12.14	4.77987
12.15	4.78547
12.16	4.79007
12.17	4.79599
12.18	4.79764
12.19	4.80553
12.2	4.79336
12.21	4.78843
12.22	4.80191
12.23	4.80257
12.24	4.79566
12.25	4.7881
12.26	4.78843
12.27	4.79632
12.28	4.79764
12.29	4.78448
12.3	4.79303
12.31	4.7983
12.32	4.79895
12.33	4.78777
12.34	4.78941
12.35	4.79566
12.36	4.7802
12.37	4.78316
12.38	4.79632
12.39	4.78316
12.4	4.78415
12.41	4.78908
12.42	4.8006
12.43	4.78547
12.44	4.7881
12.45	4.78481
12.46	4.7802
12.47	4.78481
12.48	4.78547
12.49	4.78744
12.5	4.78119
12.51	4.78316
12.52	4.77724
12.53	4.78382
12.54	4.78349
12.55	4.7802
12.56	4.78415
12.57	4.7927
12.58	4.78547
12.59	4.77033
12.6	4.77922
12.61	4.77395
12.62	4.78349
12.63	4.78316
12.64	4.78218
12.65	4.77428
12.66	4.77395
12.67	4.77395
12.68	4.77494
12.69	4.77494
12.7	4.77395
12.71	4.76869
12.72	4.77264
12.73	4.77
12.74	4.77461
12.75	4.77428
12.76	4.77329
12.77	4.77428
12.78	4.76902
12.79	4.77593
12.8	4.7654
12.81	4.76441
12.82	4.76145
12.83	4.76803
12.84	4.77625
12.85	4.77231
12.86	4.7631
12.87	4.7654
12.88	4.76047
12.89	4.76737
12.9	4.77691
12.91	4.77297
12.92	4.77395
12.93	4.76672
12.94	4.77724
12.95	4.76902
12.96	4.77395
12.97	4.77757
12.98	4.76507
12.99	4.75981
13	4.76573
13.01	4.75816
13.02	4.7677
13.03	4.77198
13.04	4.77198
13.05	4.76672
13.06	4.77066
13.07	4.7677
13.08	4.76704
13.09	4.77099
13.1	4.76803
13.11	4.75356
13.12	4.7575
13.13	4.77231
13.14	4.76573
13.15	4.75849
13.16	4.76474
13.17	4.7506
13.18	4.74369
13.19	4.74665
13.2	4.7552
13.21	4.77198
13.22	4.76277
13.23	4.75454
13.24	4.7404
13.25	4.75158
13.26	4.75389
13.27	4.75882
13.28	4.75718
13.29	4.74533
13.3	4.75191
13.31	4.75652
13.32	4.7506
13.33	4.7575
13.34	4.7506
13.35	4.74698
13.36	4.74764
13.37	4.74994
13.38	4.74731
13.39	4.74468
13.4	4.74928
13.41	4.7506
13.42	4.75882
13.43	4.74402
13.44	4.74073
13.45	4.75191
13.46	4.75323
13.47	4.7529
13.48	4.7381
13.49	4.73612
13.5	4.75191
13.51	4.74468
13.52	4.74764
13.53	4.7506
13.54	4.75652
13.55	4.75816
13.56	4.75323
13.57	4.76079
13.58	4.75586
13.59	4.74468
13.6	4.75487
13.61	4.74796
13.62	4.74599
13.63	4.76047
13.64	4.75454
13.65	4.75586
13.66	4.74928
13.67	4.74533
13.68	4.74698
13.69	4.74599
13.7	4.74764
13.71	4.76079
13.72	4.74862
13.73	4.74862
13.74	4.74369
13.75	4.74599
13.76	4.75125
13.77	4.75027
13.78	4.75158
13.79	4.74369
13.8	4.74171
13.81	4.7381
13.82	4.74435
13.83	4.74435
13.84	4.73842
13.85	4.74533
13.86	4.7506
13.87	4.73744
13.88	4.73941
13.89	4.73777
13.9	4.74204
13.91	4.72921
13.92	4.73448
13.93	4.74303
13.94	4.74764
13.95	4.74369
13.96	4.73546
13.97	4.73645
13.98	4.73645
13.99	4.7381
14	4.75027
14.01	4.73744
14.02	4.73382
14.03	4.73283
14.04	4.73908
14.05	4.73546
14.06	4.7427
14.07	4.74961
14.08	4.73283
14.09	4.73053
14.1	4.74928
14.11	4.72889
14.12	4.73711
14.13	4.73678
14.14	4.74533
14.15	4.73481
14.16	4.72592
14.17	4.73152
14.18	4.72395
14.19	4.71507
14.2	4.73711
14.21	4.7404
14.22	4.74336
14.23	4.7279
14.24	4.72132
14.25	4.72625
14.26	4.73119
14.27	4.73349
14.28	4.73678
14.29	4.72921
14.3	4.72889
14.31	4.72889
14.32	4.72231
14.33	4.72856
14.34	4.73283
14.35	4.72757
14.36	4.73382
14.37	4.72296
14.38	4.72527
14.39	4.7325
14.4	4.71737
14.41	4.71935
14.42	4.7154
14.43	4.72856
14.44	4.72757
14.45	4.72494
14.46	4.72592
14.47	4.72461
14.48	4.73119
14.49	4.72033
14.5	4.71277
14.51	4.72165
14.52	4.71573
14.53	4.71902
14.54	4.71178
14.55	4.72461
14.56	4.72691
14.57	4.7256
14.58	4.72592
14.59	4.72099
14.6	4.72527
14.61	4.71408
14.62	4.71935
14.63	4.71013
14.64	4.71869
14.65	4.70981
14.66	4.71244
14.67	4.72395
14.68	4.73119
14.69	4.71967
14.7	4.71013
14.71	4.7131
14.72	4.71671
14.73	4.72263
14.74	4.71606
14.75	4.72132
14.76	4.72099
14.77	4.71474
14.78	4.71178
14.79	4.72757
14.8	4.72592
14.81	4.71638
14.82	4.72263
14.83	4.72231
14.84	4.71178
14.85	4.71474
14.86	4.71836
14.87	4.71211
14.88	4.72033
14.89	4.7075
14.9	4.69731
14.91	4.71145
14.92	4.72165
14.93	4.70553
14.94	4.71638
14.95	4.72165
14.96	4.7154
14.97	4.7131
14.98	4.70652
14.99	4.70487
15	4.71112
15.01	4.71573
15.02	4.70684
15.03	4.71606
15.04	4.70487
15.05	4.71244
15.06	4.71342
15.07	4.70882
15.08	4.71507
15.09	4.7154
15.1	4.70816
15.11	4.69434
15.12	4.70224
15.13	4.71079
15.14	4.7154
15.15	4.70652
15.16	4.71375
15.17	4.71902
15.18	4.70981
15.19	4.69665
15.2	4.69928
15.21	4.70684
15.22	4.7029
15.23	4.71013
15.24	4.70783
15.25	4.71277
15.26	4.70717
15.27	4.70586
15.28	4.69895
15.29	4.69796
15.3	4.69566
15.31	4.6927
15.32	4.70553
15.33	4.71737
15.34	4.70586
15.35	4.69204
15.36	4.70158
15.37	4.70619
15.38	4.70849
15.39	4.6927
15.4	4.70125
15.41	4.69763
15.42	4.70849
15.43	4.69533
15.44	4.68974
15.45	4.69994
15.46	4.71079
15.47	4.69829
15.48	4.69467
15.49	4.70421
15.5	4.71178
15.51	4.69402
15.52	4.68842
15.53	4.69566
15.54	4.69434
15.55	4.69402
15.56	4.71013
15.57	4.70487
15.58	4.70027
15.59	4.69369
15.6	4.69763
15.61	4.69731
15.62	4.69204
15.63	4.69237
15.64	4.695
15.65	4.68349
15.66	4.69533
15.67	4.69369
15.68	4.695
15.69	4.70125
15.7	4.68744
15.71	4.69402
15.72	4.69731
15.73	4.68974
15.74	4.70059
15.75	4.68513
15.76	4.69336
15.77	4.7029
15.78	4.69698
15.79	4.70092
15.8	4.68777
15.81	4.68908
15.82	4.68546
15.83	4.70092
15.84	4.69796
15.85	4.69533
15.86	4.70191
15.87	4.69171
15.88	4.69073
15.89	4.70356
15.9	4.69073
15.91	4.69895
15.92	4.68842
15.93	4.69665
15.94	4.70027
15.95	4.68546
15.96	4.68777
15.97	4.69895
15.98	4.70125
15.99	4.70388
16	4.68941
16.01	4.69434
16.02	4.69599
16.03	4.69599
16.04	4.70586
16.05	4.69402
16.06	4.69796
16.07	4.69763
16.08	4.69138
16.09	4.69007
16.1	4.69566
16.11	4.68152
16.12	4.69336
16.13	4.69467
16.14	4.69105
16.15	4.69467
16.16	4.70717
16.17	4.70224
16.18	4.69303
16.19	4.69599
16.2	4.695
16.21	4.69698
16.22	4.69566
16.23	4.69632
16.24	4.69434
16.25	4.68875
16.26	4.68744
16.27	4.69204
16.28	4.69073
16.29	4.6848
16.3	4.68842
16.31	4.69566
16.32	4.69007
16.33	4.69237
16.34	4.69336
16.35	4.68579
16.36	4.68908
16.37	4.69204
16.38	4.68152
16.39	4.6904
16.4	4.68579
16.41	4.69105
16.42	4.69599
16.43	4.70059
16.44	4.69566
16.45	4.69829
16.46	4.69895
16.47	4.70059
16.48	4.70849
16.49	4.70323
16.5	4.69007
16.51	4.69599
16.52	4.70158
16.53	4.69829
16.54	4.68777
16.55	4.68448
16.56	4.69336
16.57	4.69467
16.58	4.6904
16.59	4.69204
16.6	4.70323
16.61	4.68546
16.62	4.68941
16.63	4.68908
16.64	4.70027
16.65	4.69369
16.66	4.69632
16.67	4.69829
16.68	4.69665
16.69	4.69895
16.7	4.68941
16.71	4.69731
16.72	4.70092
16.73	4.70059
16.74	4.69566
16.75	4.6825
16.76	4.69632
16.77	4.68908
16.78	4.68809
16.79	4.68612
16.8	4.68974
16.81	4.69566
16.82	4.69073
16.83	4.69434
16.84	4.68053
16.85	4.68513
16.86	4.67559
16.87	4.68448
16.88	4.69731
16.89	4.68974
16.9	4.69237
16.91	4.68513
16.92	4.6802
16.93	4.68579
16.94	4.67329
16.95	4.68316
16.96	4.68612
16.97	4.66934
16.98	4.67658
16.99	4.68283
17	4.68283
17.01	4.67888
17.02	4.68546
17.03	4.68546
17.04	4.67987
17.05	4.68119
17.06	4.69073
17.07	4.68579
17.08	4.68217
17.09	4.69434
17.1	4.68349
17.11	4.68777
17.12	4.68941
17.13	4.67527
17.14	4.67823
17.15	4.67757
17.16	4.67263
17.17	4.67724
17.18	4.68119
17.19	4.695
17.2	4.68415
17.21	4.67658
17.22	4.68777
17.23	4.67724
17.24	4.67625
17.25	4.6779
17.26	4.68546
17.27	4.67559
17.28	4.67559
17.29	4.67428
17.3	4.68612
17.31	4.68415
17.32	4.6825
17.33	4.67823
17.34	4.69237
17.35	4.68809
17.36	4.68809
17.37	4.68448
17.38	4.6825
17.39	4.67625
17.4	4.68086
17.41	4.67954
17.42	4.67855
17.43	4.67987
17.44	4.67691
17.45	4.67888
17.46	4.66967
17.47	4.68152
17.48	4.67987
17.49	4.6779
17.5	4.68119
17.51	4.67461
17.52	4.67592
17.53	4.67757
17.54	4.67559
17.55	4.66211
17.56	4.6723
17.57	4.67033
17.58	4.67658
17.59	4.68744
17.6	4.67494
17.61	4.67066
17.62	4.66803
17.63	4.67724
17.64	4.68415
17.65	4.67395
17.66	4.67954
17.67	4.67559
17.68	4.66869
17.69	4.66869
17.7	4.66342
17.71	4.6802
17.72	4.68217
17.73	4.66934
17.74	4.67888
17.75	4.67757
17.76	4.66967
17.77	4.6723
17.78	4.6802
17.79	4.67954
17.8	4.67033
17.81	4.66507
17.82	4.66803
17.83	4.67559
17.84	4.66441
17.85	4.67066
17.86	4.67296
17.87	4.6723
17.88	4.67066
17.89	4.66441
17.9	4.6723
17.91	4.67461
17.92	4.68053
17.93	4.67724
17.94	4.67362
17.95	4.68448
17.96	4.67066
17.97	4.66408
17.98	4.66276
17.99	4.67658
18	4.68283
18.01	4.67954
18.02	4.67625
18.03	4.67362
18.04	4.67395
18.05	4.67198
18.06	4.67823
18.07	4.68777
18.08	4.66474
18.09	4.65684
18.1	4.66244
18.11	4.67165
18.12	4.66901
18.13	4.66309
18.14	4.6677
18.15	4.66605
18.16	4.67099
18.17	4.67691
18.18	4.66803
18.19	4.66145
18.2	4.66013
18.21	4.66309
18.22	4.66737
18.23	4.66737
18.24	4.66211
18.25	4.66737
18.26	4.65619
18.27	4.67263
18.28	4.67823
18.29	4.66836
18.3	4.66342
18.31	4.66178
18.32	4.66737
18.33	4.66573
18.34	4.66573
18.35	4.67494
18.36	4.66408
18.37	4.65553
18.38	4.67165
18.39	4.67757
18.4	4.66934
18.41	4.66079
18.42	4.65882
18.43	4.67362
18.44	4.65915
18.45	4.65487
18.46	4.65882
18.47	4.65257
18.48	4.64336
18.49	4.65915
18.5	4.65717
18.51	4.64829
18.52	4.66408
18.53	4.65586
18.54	4.6473
18.55	4.65882
18.56	4.65487
18.57	4.65191
18.58	4.65651
18.59	4.66013
18.6	4.66342
18.61	4.65684
18.62	4.65026
18.63	4.65586
18.64	4.64961
18.65	4.65553
18.66	4.65849
18.67	4.66112
18.68	4.66638
18.69	4.66638
18.7	4.66046
18.71	4.66671
18.72	4.66309
18.73	4.6598
18.74	4.66507
18.75	4.6723
18.76	4.66211
18.77	4.67099
18.78	4.66737
18.79	4.65651
18.8	4.65915
18.81	4.65684
18.82	4.66309
18.83	4.66474
18.84	4.67033
18.85	4.66671
18.86	4.67494
18.87	4.67263
18.88	4.68053
18.89	4.67461
18.9	4.65948
18.91	4.66934
18.92	4.66737
18.93	4.66013
18.94	4.65224
18.95	4.65651
18.96	4.66046
18.97	4.66507
18.98	4.66507
18.99	4.67
19	4.66803
19.01	4.65586
19.02	4.65487
19.03	4.66342
19.04	4.66046
19.05	4.64434
19.06	4.65553
19.07	4.65487
19.08	4.65191
19.09	4.65191
19.1	4.66079
19.11	4.65586
19.12	4.65586
19.13	4.65651
19.14	4.65487
19.15	4.6552
19.16	4.66671
19.17	4.65586
19.18	4.66408
19.19	4.6575
19.2	4.65619
19.21	4.6598
19.22	4.65948
19.23	4.6552
19.24	4.65191
19.25	4.6575
19.26	4.64895
19.27	4.65125
19.28	4.65454
19.29	4.65125
19.3	4.65322
19.31	4.65224
19.32	4.66276
19.33	4.66244
19.34	4.6598
19.35	4.65388
19.36	4.66211
19.37	4.66342
19.38	4.65849
19.39	4.64796
19.4	4.65487
19.41	4.6598
19.42	4.65487
19.43	4.66112
19.44	4.66901
19.45	4.64961
19.46	4.65158
19.47	4.65125
19.48	4.65717
19.49	4.66211
19.5	4.65355
19.51	4.64895
19.52	4.66112
19.53	4.65059
19.54	4.65224
19.55	4.645
19.56	4.65553
19.57	4.65948
19.58	4.64895
19.59	4.64829
19.6	4.65487
19.61	4.6473
19.62	4.64928
19.63	4.63645
19.64	4.65125
19.65	4.64796
19.66	4.64928
19.67	4.64928
19.68	4.65059
19.69	4.64369
19.7	4.64369
19.71	4.65586
19.72	4.64763
19.73	4.64895
19.74	4.63842
19.75	4.64862
19.76	4.65026
19.77	4.64796
19.78	4.64105
19.79	4.63415
19.8	4.63974
19.81	4.6473
19.82	4.65388
19.83	4.64171
19.84	4.63645
19.85	4.64336
19.86	4.64763
19.87	4.64336
19.88	4.63875
19.89	4.65092
19.9	4.63875
19.91	4.63842
19.92	4.63974
19.93	4.65191
19.94	4.63842
19.95	4.64204
19.96	4.63941
19.97	4.64895
19.98	4.64105
19.99	4.64138
20	4.64763
20.01	4.64007
20.02	4.64599
20.03	4.64336
20.04	4.63579
20.05	4.65092
20.06	4.64105
20.07	4.64697
20.08	4.65224
20.09	4.64599
20.1	4.65355
20.11	4.64434
20.12	4.64994
20.13	4.64961
20.14	4.64434
20.15	4.63809
20.16	4.65257
20.17	4.65191
20.18	4.64566
20.19	4.65388
20.2	4.65783
20.21	4.65355
20.22	4.65355
20.23	4.65553
20.24	4.64237
20.25	4.65586
20.26	4.65816
20.27	4.65388
20.28	4.65619
20.29	4.65619
20.3	4.65026
20.31	4.65257
20.32	4.6427
20.33	4.63809
20.34	4.64401
20.35	4.64533
20.36	4.65026
20.37	4.64796
20.38	4.65421
20.39	4.65026
20.4	4.64434
20.41	4.65487
20.42	4.6552
20.43	4.64697
20.44	4.64072
20.45	4.63513
20.46	4.63875
20.47	4.645
20.48	4.63447
20.49	4.64138
20.5	4.63941
20.51	4.63809
20.52	4.64994
20.53	4.63645
20.54	4.63809
20.55	4.64796
20.56	4.64204
20.57	4.62592
20.58	4.63678
20.59	4.64533
20.6	4.64697
20.61	4.63546
20.62	4.63809
20.63	4.63513
20.64	4.63875
20.65	4.63941
20.66	4.6325
20.67	4.64105
20.68	4.63842
20.69	4.6404
20.7	4.64434
20.71	4.63612
20.72	4.63809
20.73	4.64697
20.74	4.64697
20.75	4.63711
20.76	4.64138
20.77	4.63678
20.78	4.64599
20.79	4.64204
20.8	4.64796
20.81	4.63678
20.82	4.64632
20.83	4.64599
20.84	4.64829
20.85	4.64533
20.86	4.64434
20.87	4.64566
20.88	4.63809
20.89	4.65454
20.9	4.64369
20.91	4.64105
20.92	4.6473
20.93	4.64599
20.94	4.64665
20.95	4.64336
20.96	4.64829
20.97	4.64204
20.98	4.63941
20.99	4.64072
21	4.63908
21.01	4.63908
21.02	4.63513
21.03	4.6348
21.04	4.63217
21.05	4.645
21.06	4.64434
21.07	4.63842
21.08	4.65059
21.09	4.63283
21.1	4.63809
21.11	4.62296
21.12	4.62954
21.13	4.64138
21.14	4.63875
21.15	4.63349
21.16	4.63842
21.17	4.63382
21.18	4.63743
21.19	4.64336
21.2	4.63678
21.21	4.63546
21.22	4.64072
21.23	4.64138
21.24	4.64336
21.25	4.63513
21.26	4.63941
21.27	4.64303
21.28	4.64336
21.29	4.64204
21.3	4.64303
21.31	4.63678
21.32	4.65388
21.33	4.64434
21.34	4.63546
21.35	4.64007
21.36	4.64204
21.37	4.63316
21.38	4.64007
21.39	4.63842
21.4	4.64105
21.41	4.63546
21.42	4.61836
21.43	4.61803
21.44	4.63283
21.45	4.63875
21.46	4.63546
21.47	4.63974
21.48	4.62592
21.49	4.63447
21.5	4.63217
21.51	4.6325
21.52	4.62855
21.53	4.63382
21.54	4.62888
21.55	4.63086
21.56	4.6348
21.57	4.63118
21.58	4.6302
21.59	4.62855
21.6	4.62625
21.61	4.63743
21.62	4.62888
21.63	4.63447
21.64	4.64138
21.65	4.63513
21.66	4.63809
21.67	4.64533
21.68	4.63283
21.69	4.63842
21.7	4.62559
21.71	4.63382
21.72	4.64336
21.73	4.62658
21.74	4.63447
21.75	4.64007
21.76	4.62724
21.77	4.63349
21.78	4.63678
21.79	4.6325
21.8	4.62691
21.81	4.62625
21.82	4.63776
21.83	4.63579
21.84	4.63217
21.85	4.63579
21.86	4.62822
21.87	4.62428
21.88	4.63974
21.89	4.63316
21.9	4.62658
21.91	4.62658
21.92	4.63612
21.93	4.63283
21.94	4.63513
21.95	4.64072
21.96	4.63118
21.97	4.63447
21.98	4.62033
21.99	4.62921
22	4.62855
22.01	4.6279
22.02	4.63382
22.03	4.62296
22.04	4.62987
22.05	4.63711
22.06	4.63283
22.07	4.63711
22.08	4.63184
22.09	4.63349
22.1	4.62724
22.11	4.62921
22.12	4.63645
22.13	4.62888
22.14	4.63974
22.15	4.63447
22.16	4.62822
22.17	4.63612
22.18	4.63415
22.19	4.62428
22.2	4.6348
22.21	4.64204
22.22	4.63678
22.23	4.63447
22.24	4.61638
22.25	4.62855
22.26	4.62724
22.27	4.62099
22.28	4.62724
22.29	4.63053
22.3	4.64303
22.31	4.64007
22.32	4.63711
22.33	4.63809
22.34	4.63283
22.35	4.63382
22.36	4.6279
22.37	4.61934
22.38	4.62461
22.39	4.62296
22.4	4.62954
22.41	4.61934
22.42	4.62658
22.43	4.62724
22.44	4.62099
22.45	4.61934
22.46	4.62822
22.47	4.6348
22.48	4.62855
22.49	4.61934
22.5	4.62296
22.51	4.63316
22.52	4.62691
22.53	4.62559
22.54	4.62921
22.55	4.62362
22.56	4.61441
22.57	4.61671
22.58	4.62559
22.59	4.62954
22.6	4.62164
22.61	4.62296
22.62	4.62296
22.63	4.62493
22.64	4.62954
22.65	4.63415
22.66	4.63842
22.67	4.6302
22.68	4.6302
22.69	4.62197
22.7	4.63349
22.71	4.63184
22.72	4.62066
22.73	4.62066
22.74	4.62691
22.75	4.61441
22.76	4.62493
22.77	4.63349
22.78	4.64138
22.79	4.63546
22.8	4.62493
22.81	4.6279
22.82	4.6177
22.83	4.62197
22.84	4.62625
22.85	4.63316
22.86	4.63316
22.87	4.62493
22.88	4.62493
22.89	4.62987
22.9	4.62263
22.91	4.61934
22.92	4.63151
22.93	4.63382
22.94	4.62724
22.95	4.63382
22.96	4.6302
22.97	4.62921
22.98	4.62
22.99	4.62822
23	4.63612
23.01	4.62757
23.02	4.62855
23.03	4.61737
23.04	4.62066
23.05	4.62559
23.06	4.63415
23.07	4.63151
23.08	4.62822
23.09	4.6223
23.1	4.62888
23.11	4.62954
23.12	4.61671
23.13	4.63283
23.14	4.63151
23.15	4.63283
23.16	4.62263
23.17	4.61737
23.18	4.62592
23.19	4.62954
23.2	4.61243
23.21	4.61836
23.22	4.62461
23.23	4.62033
23.24	4.6325
23.25	4.62
23.26	4.61638
23.27	4.61342
23.28	4.62493
23.29	4.62066
23.3	4.62066
23.31	4.62329
23.32	4.61309
23.33	4.60816
23.34	4.61901
23.35	4.61474
23.36	4.6223
23.37	4.61901
23.38	4.61013
23.39	4.61178
23.4	4.61704
23.41	4.61934
23.42	4.61474
23.43	4.61539
23.44	4.62296
23.45	4.61671
23.46	4.61803
23.47	4.62263
23.48	4.62362
23.49	4.61572
23.5	4.6075
23.51	4.61803
23.52	4.61836
23.53	4.61013
23.54	4.61178
23.55	4.61605
23.56	4.61901
23.57	4.61803
23.58	4.60849
23.59	4.62033
23.6	4.62658
23.61	4.61901
23.62	4.60914
23.63	4.61211
23.64	4.61836
23.65	4.61934
23.66	4.61934
23.67	4.61638
23.68	4.60947
23.69	4.59993
23.7	4.61408
23.71	4.61408
23.72	4.61211
23.73	4.60322
23.74	4.62724
23.75	4.62757
23.76	4.62197
23.77	4.6223
23.78	4.6223
23.79	4.62296
23.8	4.6177
23.81	4.62625
23.82	4.6177
23.83	4.61803
23.84	4.62164
23.85	4.62263
23.86	4.62428
23.87	4.62197
23.88	4.62691
23.89	4.62691
23.9	4.64105
23.91	4.63086
23.92	4.62132
23.93	4.62395
23.94	4.62921
23.95	4.62954
23.96	4.63743
23.97	4.62855
23.98	4.62592
23.99	4.62987
24	4.62592
24.01	4.62395
24.02	4.62921
24.03	4.61934
24.04	4.63217
24.05	4.63447
24.06	4.62954
24.07	4.6348
24.08	4.62395
24.09	4.62559
24.1	4.62362
24.11	4.63382
24.12	4.62691
24.13	4.61408
24.14	4.61934
24.15	4.63217
24.16	4.61605
24.17	4.61934
24.18	4.60947
24.19	4.61836
24.2	4.61605
24.21	4.61737
24.22	4.61441
24.23	4.6075
24.24	4.61737
24.25	4.60454
24.26	4.60849
24.27	4.61046
24.28	4.60717
24.29	4.6052
24.3	4.61013
24.31	4.61572
24.32	4.61112
24.33	4.60289
24.34	4.60684
24.35	4.61408
24.36	4.61211
24.37	4.60224
24.38	4.60421
24.39	4.60487
24.4	4.60322
24.41	4.60421
24.42	4.61342
24.43	4.61868
24.44	4.6223
24.45	4.61704
24.46	4.60289
24.47	4.61178
24.48	4.61836
24.49	4.61342
24.5	4.6098
24.51	4.6052
24.52	4.61441
24.53	4.61342
24.54	4.6098
24.55	4.59796
24.56	4.5973
24.57	4.62362
24.58	4.62395
24.59	4.62461
24.6	4.61572
24.61	4.60816
24.62	4.61145
24.63	4.62099
24.64	4.61408
24.65	4.62
24.66	4.62428
24.67	4.61605
24.68	4.61375
24.69	4.61145
24.7	4.61507
24.71	4.61704
24.72	4.61901
24.73	4.62132
24.74	4.61901
24.75	4.61671
24.76	4.62132
24.77	4.61441
24.78	4.60882
24.79	4.61375
24.8	4.6223
24.81	4.6223
24.82	4.60651
24.83	4.60717
24.84	4.61671
24.85	4.61967
24.86	4.61211
24.87	4.61408
24.88	4.60454
24.89	4.61474
24.9	4.61211
24.91	4.60224
24.92	4.60257
24.93	4.61572
24.94	4.59862
24.95	4.60125
24.96	4.60322
24.97	4.60125
24.98	4.60651
24.99	4.60717
25	4.60322
25.01	4.60487
25.02	4.60849
25.03	4.60158
25.04	4.60388
25.05	4.60388
25.06	4.61112
25.07	4.60618
25.08	4.59303
25.09	4.59697
25.1	4.60289
25.11	4.60355
25.12	4.60947
25.13	4.60783
25.14	4.60388
25.15	4.60816
25.16	4.60882
25.17	4.6177
25.18	4.60882
25.19	4.60783
25.2	4.6075
25.21	4.60355
25.22	4.6098
25.23	4.60882
25.24	4.61211
25.25	4.6177
25.26	4.61112
25.27	4.60717
25.28	4.60553
25.29	4.60355
25.3	4.61178
25.31	4.61671
25.32	4.60882
25.33	4.60125
25.34	4.61112
25.35	4.61539
25.36	4.60783
25.37	4.60257
25.38	4.59664
25.39	4.60684
25.4	4.60585
25.41	4.59928
25.42	4.61046
25.43	4.61276
25.44	4.62099
25.45	4.60355
25.46	4.60717
25.47	4.60717
25.48	4.6052
25.49	4.60849
25.5	4.60618
25.51	4.60158
25.52	4.59895
25.53	4.60289
25.54	4.60059
25.55	4.5996
25.56	4.61243
25.57	4.6177
25.58	4.6075
25.59	4.5996
25.6	4.60421
25.61	4.6075
25.62	4.6098
25.63	4.61178
25.64	4.60224
25.65	4.5996
25.66	4.59697
25.67	4.60783
25.68	4.61046
25.69	4.60882
25.7	4.61145
25.71	4.59829
25.72	4.61309
25.73	4.60651
25.74	4.61441
25.75	4.61868
25.76	4.60947
25.77	4.60914
25.78	4.60322
25.79	4.61704
25.8	4.60651
25.81	4.6075
25.82	4.61243
25.83	4.61638
25.84	4.60388
25.85	4.60849
25.86	4.61441
25.87	4.61243
25.88	4.6098
25.89	4.60684
25.9	4.60092
25.91	4.6052
25.92	4.60026
25.93	4.61145
25.94	4.60882
25.95	4.61638
25.96	4.61211
25.97	4.61803
25.98	4.6098
25.99	4.59928
26	4.61013
26.01	4.60618
26.02	4.60651
26.03	4.61441
26.04	4.60553
26.05	4.5996
26.06	4.59829
26.07	4.60585
26.08	4.60585
26.09	4.61243
26.1	4.60322
26.11	4.58974
26.12	4.58612
26.13	4.59796
26.14	4.5996
26.15	4.59763
26.16	4.59434
26.17	4.58645
26.18	4.60224
26.19	4.60355
26.2	4.58941
26.21	4.5848
26.22	4.60651
26.23	4.6052
26.24	4.59796
26.25	4.59039
26.26	4.59763
26.27	4.60618
26.28	4.60388
26.29	4.6052
26.3	4.60092
26.31	4.60257
26.32	4.61145
26.33	4.60059
26.34	4.5973
26.35	4.59105
26.36	4.60388
26.37	4.61013
26.38	4.59796
26.39	4.6098
26.4	4.60618
26.41	4.59928
26.42	4.59335
26.43	4.60947
26.44	4.60191
26.45	4.60191
26.46	4.60059
26.47	4.59928
26.48	4.60454
26.49	4.60783
26.5	4.60849
26.51	4.59796
26.52	4.60257
26.53	4.59335
26.54	4.60421
26.55	4.5996
26.56	4.5996
26.57	4.60618
26.58	4.6098
26.59	4.61145
26.6	4.60322
26.61	4.59533
26.62	4.60158
26.63	4.60421
26.64	4.60257
26.65	4.60585
26.66	4.61046
26.67	4.62066
26.68	4.60947
26.69	4.60355
26.7	4.62
26.71	4.61408
26.72	4.61901
26.73	4.61572
26.74	4.61408
26.75	4.61572
26.76	4.60947
26.77	4.60651
26.78	4.60651
26.79	4.60158
26.8	4.60717
26.81	4.61507
26.82	4.60553
26.83	4.61309
26.84	4.60322
26.85	4.61046
26.86	4.60849
26.87	4.60092
26.88	4.60684
26.89	4.59467
26.9	4.60618
26.91	4.60553
26.92	4.60257
26.93	4.60026
26.94	4.60355
26.95	4.60191
26.96	4.60224
26.97	4.61211
26.98	4.60224
26.99	4.59204
27	4.59401
27.01	4.61013
27.02	4.58941
27.03	4.59862
27.04	4.60454
27.05	4.60257
27.06	4.59993
27.07	4.5927
27.08	4.59171
27.09	4.59829
27.1	4.58447
27.11	4.59237
27.12	4.59303
27.13	4.58776
27.14	4.58447
27.15	4.595
27.16	4.59928
27.17	4.59171
27.18	4.59007
27.19	4.5871
27.2	4.58217
27.21	4.58678
27.22	4.60322
27.23	4.59171
27.24	4.5927
27.25	4.59467
27.26	4.60059
27.27	4.58842
27.28	4.59533
27.29	4.60158
27.3	4.59664
27.31	4.59401
27.32	4.58612
27.33	4.58974
27.34	4.59993
27.35	4.58447
27.36	4.58974
27.37	4.59303
27.38	4.59928
27.39	4.58612
27.4	4.59599
27.41	4.59204
27.42	4.59664
27.43	4.59763
27.44	4.59895
27.45	4.59335
27.46	4.58776
27.47	4.59368
27.48	4.58579
27.49	4.59697
27.5	4.59829
27.51	4.60684
27.52	4.60158
27.53	4.60585
27.54	4.60882
27.55	4.59072
27.56	4.60092
27.57	4.59796
27.58	4.60191
27.59	4.60158
27.6	4.59335
27.61	4.59632
27.62	4.59697
27.63	4.59993
27.64	4.58809
27.65	4.59303
27.66	4.59434
27.67	4.58941
27.68	4.60125
27.69	4.59138
27.7	4.60257
27.71	4.59039
27.72	4.59138
27.73	4.59829
27.74	4.59829
27.75	4.58908
27.76	4.59434
27.77	4.60849
27.78	4.5996
27.79	4.59467
27.8	4.59697
27.81	4.59237
27.82	4.58612
27.83	4.59697
27.84	4.59368
27.85	4.58678
27.86	4.58743
27.87	4.59007
27.88	4.59039
27.89	4.59401
27.9	4.59335
27.91	4.59039
27.92	4.58941
27.93	4.59401
27.94	4.59862
27.95	4.59007
27.96	4.58809
27.97	4.57855
27.98	4.5848
27.99	4.58513
28	4.58809
28.01	4.58974
28.02	4.59697
28.03	4.59697
28.04	4.59467
28.05	4.59664
28.06	4.59303
28.07	4.58447
28.08	4.59467
28.09	4.59072
28.1	4.58974
28.11	4.59697
28.12	4.58283
28.13	4.5871
28.14	4.59335
28.15	4.5848
28.16	4.59303
28.17	4.58908
28.18	4.57296
28.19	4.58184
28.2	4.59829
28.21	4.595
28.22	4.59039
28.23	4.58546
28.24	4.5871
28.25	4.59335
28.26	4.58974
28.27	4.59632
28.28	4.59237
28.29	4.59664
28.3	4.57954
28.31	4.59007
28.32	4.59895
28.33	4.59105
28.34	4.59335
28.35	4.5848
28.36	4.58941
28.37	4.58743
28.38	4.58151
28.39	4.59072
28.4	4.58546
28.41	4.59566
28.42	4.5871
28.43	4.58546
28.44	4.5825
28.45	4.60026
28.46	4.59237
28.47	4.58612
28.48	4.58908
28.49	4.5848
28.5	4.59599
28.51	4.59467
28.52	4.57724
28.53	4.58381
28.54	4.59105
28.55	4.59237
28.56	4.59566
28.57	4.57954
28.58	4.57395
28.59	4.58908
28.6	4.58941
28.61	4.60059
28.62	4.58809
28.63	4.58776
28.64	4.5871
28.65	4.57954
28.66	4.59303
28.67	4.57888
28.68	4.58053
28.69	4.58316
28.7	4.58546
28.71	4.58743
28.72	4.58809
28.73	4.58447
28.74	4.59072
28.75	4.59303
28.76	4.5802
28.77	4.58283
28.78	4.58678
28.79	4.5848
28.8	4.58513
28.81	4.58645
28.82	4.58809
28.83	4.59829
28.84	4.58447
28.85	4.59237
28.86	4.58579
28.87	4.58447
28.88	4.58612
28.89	4.59862
28.9	4.58381
28.91	4.5927
28.92	4.59632
28.93	4.59763
28.94	4.59434
28.95	4.59467
28.96	4.59204
28.97	4.58875
28.98	4.58118
28.99	4.59237
29	4.59467
29.01	4.59763
29.02	4.59566
29.03	4.58316
29.04	4.595
29.05	4.60092
29.06	4.59862
29.07	4.59401
29.08	4.58579
29.09	4.59072
29.1	4.58842
29.11	4.60257
29.12	4.60849
29.13	4.59796
29.14	4.58974
29.15	4.60257
29.16	4.60487
29.17	4.59303
29.18	4.58513
29.19	4.58842
29.2	4.59303
29.21	4.58546
29.22	4.58349
29.23	4.58579
29.24	4.59007
29.25	4.59204
29.26	4.60454
29.27	4.59434
29.28	4.59303
29.29	4.59303
29.3	4.59467
29.31	4.595
29.32	4.59039
29.33	4.59335
29.34	4.59566
29.35	4.59664
29.36	4.5973
29.37	4.59204
29.38	4.60585
29.39	4.5927
29.4	4.59467
29.41	4.60816
29.42	4.59401
29.43	4.60191
29.44	4.6052
29.45	4.5927
29.46	4.58414
29.47	4.58974
29.48	4.59007
29.49	4.5848
29.5	4.5996
29.51	4.59796
29.52	4.58743
29.53	4.58908
29.54	4.58349
29.55	4.60026
29.56	4.58908
29.57	4.59171
29.58	4.5871
29.59	4.58743
29.6	4.59796
29.61	4.60158
29.62	4.59599
29.63	4.58645
29.64	4.58546
29.65	4.58184
29.66	4.57395
29.67	4.56967
29.68	4.58809
29.69	4.57724
29.7	4.5825
29.71	4.59138
29.72	4.59039
29.73	4.58184
29.74	4.59105
29.75	4.57987
29.76	4.58151
29.77	4.5871
29.78	4.58645
29.79	4.57592
29.8	4.58447
29.81	4.57855
29.82	4.5802
29.83	4.57954
29.84	4.59434
29.85	4.59105
29.86	4.58513
29.87	4.57954
29.88	4.58217
29.89	4.59237
29.9	4.58349
29.91	4.58349
29.92	4.57987
29.93	4.5746
29.94	4.57592
29.95	4.57855
29.96	4.57789
29.97	4.58381
29.98	4.58316
29.99	4.58184
30	4.57822
