"BIO-KINE ASCII FILE"
"_COMMENT"	"MOS-500 Spectrometer"
"_COMMENT"	"Kinetics measurement"
"_COMMENT"	"Y Unit : Volt,  X Unit : s"
"_COMMENT"	"Excitation wavelength : 380 nm"
"_COMMENT"	"Fentes bandwidth =  1 nm"
"_COMMENT"	"HV= 750V"
"_COMMENT"	"Timebase  1 =  .01 s   3001 pts"
"_SFM"	"SFM-400 /S  Advanced mode"
"_SFM"	"Ratio : S1: 2.5, S2: 0, S3: 0, S4: 1"
"_SFM"	"Content : S1: , S2: , S3: , S4:"
"_SFM"	"Concentration : S1: , S2: , S3: , S4:"
"_SFM"	"Total volume : 209 µl  Flow : 3.5 mL/s"
"_SFM"	"Acquisition start :  10 ms before stop"
"_SFM"	"cuve=FC-15, s1=10 ml , s2=10 ml , s3=10 ml , s4=1.9 ml"
"_UNITX"	"s"
"_UNITY"	"Volt"
"_DELTAX"	0
"_DATA"
1e-300	7.00329
0.01	7.44936
0.02	7.65265
0.03	7.65035
0.04	7.67042
0.05	7.67831
0.06	7.6691
0.07	7.67338
0.08	7.67535
0.09	7.68324
0.1	7.68851
0.11	7.67897
0.12	7.70232
0.13	7.68917
0.14	7.68423
0.15	7.6691
0.16	7.67963
0.17	7.69607
0.18	7.67831
0.19	7.67009
0.2	7.68259
0.21	7.68226
0.22	7.65857
0.23	7.67403
0.24	7.67403
0.25	7.66384
0.26	7.66153
0.27	7.65463
0.28	7.64344
0.29	7.66055
0.3	7.65035
0.31	7.64443
0.32	7.65824
0.33	7.63094
0.34	7.61351
0.35	7.62008
0.36	7.63094
0.37	7.60857
0.38	7.59179
0.39	7.59607
0.4	7.6112
0.41	7.59476
0.42	7.5839
0.43	7.58686
0.44	7.59311
0.45	7.56811
0.46	7.5487
0.47	7.55396
0.48	7.55396
0.49	7.54804
0.5	7.53554
0.51	7.52502
0.52	7.54146
0.53	7.53225
0.54	7.526
0.55	7.51317
0.56	7.52535
0.57	7.51383
0.58	7.51844
0.59	7.50166
0.6	7.48916
0.61	7.48883
0.62	7.49738
0.63	7.4839
0.64	7.47041
0.65	7.46548
0.66	7.46219
0.67	7.46317
0.68	7.44607
0.69	7.44376
0.7	7.43554
0.71	7.42534
0.72	7.40922
0.73	7.41613
0.74	7.41679
0.75	7.40857
0.76	7.40955
0.77	7.38916
0.78	7.36843
0.79	7.40265
0.8	7.38554
0.81	7.38061
0.82	7.37567
0.83	7.37896
0.84	7.37699
0.85	7.3635
0.86	7.35264
0.87	7.34508
0.88	7.32666
0.89	7.33192
0.9	7.32567
0.91	7.32337
0.92	7.33258
0.93	7.32008
0.94	7.30823
0.95	7.30856
0.96	7.30462
0.97	7.30067
0.98	7.28883
0.99	7.28126
1	7.28225
1.01	7.26777
1.02	7.27633
1.03	7.27896
1.04	7.26843
1.05	7.26843
1.06	7.24343
1.07	7.2454
1.08	7.23554
1.09	7.22402
1.1	7.23751
1.11	7.25363
1.12	7.21646
1.13	7.22435
1.14	7.2056
1.15	7.20297
1.16	7.18948
1.17	7.18718
1.18	7.18455
1.19	7.18948
1.2	7.17073
1.21	7.1533
1.22	7.14145
1.23	7.14869
1.24	7.15527
1.25	7.1431
1.26	7.14244
1.27	7.13784
1.28	7.13126
1.29	7.11711
1.3	7.1204
1.31	7.12402
1.32	7.11777
1.33	7.10922
1.34	7.08586
1.35	7.09705
1.36	7.10889
1.37	7.07994
1.38	7.05691
1.39	7.05922
1.4	7.05691
1.41	7.06218
1.42	7.05099
1.43	7.0477
1.44	7.02204
1.45	7.02961
1.46	7.03981
1.47	7.03257
1.48	7.02106
1.49	7.01514
1.5	7.01579
1.51	7.00395
1.52	6.98553
1.53	6.98816
1.54	6.98652
1.55	6.98882
1.56	6.97336
1.57	6.95724
1.58	6.96283
1.59	6.96316
1.6	6.95132
1.61	6.95329
1.62	6.94309
1.63	6.93454
1.64	6.93816
1.65	6.91974
1.66	6.90132
1.67	6.91711
1.68	6.9125
1.69	6.90461
1.7	6.90625
1.71	6.88026
1.72	6.87862
1.73	6.87993
1.74	6.88388
1.75	6.86908
1.76	6.84901
1.77	6.85691
1.78	6.87204
1.79	6.84967
1.8	6.83289
1.81	6.83618
1.82	6.8273
1.83	6.82631
1.84	6.84013
1.85	6.83026
1.86	6.79901
1.87	6.81085
1.88	6.80658
1.89	6.79539
1.9	6.78059
1.91	6.8023
1.92	6.79605
1.93	6.78618
1.94	6.77105
1.95	6.77434
1.96	6.76612
1.97	6.74342
1.98	6.74111
1.99	6.7444
2	6.74079
2.01	6.73585
2.02	6.72467
2.03	6.73256
2.04	6.7296
2.05	6.70986
2.06	6.70164
2.07	6.69473
2.08	6.69013
2.09	6.68388
2.1	6.69539
2.11	6.67565
2.12	6.66052
2.13	6.65032
2.14	6.65624
2.15	6.67236
2.16	6.6546
2.17	6.65624
2.18	6.63322
2.19	6.63684
2.2	6.64341
2.21	6.61611
2.22	6.6148
2.23	6.6171
2.24	6.61249
2.25	6.60855
2.26	6.6069
2.27	6.60394
2.28	6.58815
2.29	6.58354
2.3	6.58026
2.31	6.56874
2.32	6.57039
2.33	6.5615
2.34	6.55624
2.35	6.54506
2.36	6.53091
2.37	6.53486
2.38	6.54144
2.39	6.53223
2.4	6.52466
2.41	6.53782
2.42	6.5046
2.43	6.50756
2.44	6.50657
2.45	6.49834
2.46	6.49867
2.47	6.50196
2.48	6.48519
2.49	6.47433
2.5	6.45558
2.51	6.46183
2.52	6.47236
2.53	6.45558
2.54	6.45986
2.55	6.45986
2.56	6.45755
2.57	6.46249
2.58	6.45755
2.59	6.43584
2.6	6.43946
2.61	6.41578
2.62	6.42203
2.63	6.41512
2.64	6.40196
2.65	6.40328
2.66	6.38847
2.67	6.38222
2.68	6.38255
2.69	6.37926
2.7	6.37564
2.71	6.37663
2.72	6.37762
2.73	6.34999
2.74	6.35426
2.75	6.35328
2.76	6.36018
2.77	6.33551
2.78	6.33091
2.79	6.33781
2.8	6.33617
2.81	6.32202
2.82	6.30722
2.83	6.31216
2.84	6.29801
2.85	6.3115
2.86	6.30426
2.87	6.29209
2.88	6.27729
2.89	6.2809
2.9	6.2865
2.91	6.27564
2.92	6.27893
2.93	6.2684
2.94	6.25919
2.95	6.25985
2.96	6.25097
2.97	6.25952
2.98	6.25163
2.99	6.24604
3	6.2411
3.01	6.25064
3.02	6.22367
3.03	6.22038
3.04	6.21643
3.05	6.22038
3.06	6.20985
3.07	6.17597
3.08	6.18485
3.09	6.18485
3.1	6.19143
3.11	6.19077
3.12	6.19735
3.13	6.16709
3.14	6.16709
3.15	6.1707
3.16	6.16413
3.17	6.14866
3.18	6.15853
3.19	6.16215
3.2	6.13287
3.21	6.1411
3.22	6.13287
3.23	6.12597
3.24	6.11511
3.25	6.1082
3.26	6.11478
3.27	6.09965
3.28	6.09472
3.29	6.10393
3.3	6.098
3.31	6.08518
3.32	6.10952
3.33	6.09077
3.34	6.07333
3.35	6.0855
3.36	6.05327
3.37	6.07333
3.38	6.06675
3.39	6.05985
3.4	6.05656
3.41	6.04702
3.42	6.02267
3.43	6.02399
3.44	6.03156
3.45	6.01906
3.46	6.00655
3.47	6.01971
3.48	6.00787
3.49	6.01774
3.5	6.00294
3.51	5.98912
3.52	5.98123
3.53	5.99833
3.54	5.9855
3.55	5.97761
3.56	5.9707
3.57	5.97267
3.58	5.97596
3.59	5.96478
3.6	5.95951
3.61	5.94866
3.62	5.95063
3.63	5.95458
3.64	5.94504
3.65	5.93978
3.66	5.91741
3.67	5.94043
3.68	5.93484
3.69	5.92464
3.7	5.91445
3.71	5.91149
3.72	5.90063
3.73	5.89274
3.74	5.90228
3.75	5.89076
3.76	5.89109
3.77	5.87629
3.78	5.87135
3.79	5.87497
3.8	5.87431
3.81	5.86116
3.82	5.83583
3.83	5.85754
3.84	5.84997
3.85	5.83879
3.86	5.82958
3.87	5.84109
3.88	5.8253
3.89	5.81839
3.9	5.8049
3.91	5.81247
3.92	5.82398
3.93	5.81971
3.94	5.82563
3.95	5.82004
3.96	5.79865
3.97	5.78944
3.98	5.79175
3.99	5.77859
4	5.78648
4.01	5.78385
4.02	5.78122
4.03	5.78582
4.04	5.76642
4.05	5.75852
4.06	5.75457
4.07	5.76017
4.08	5.74372
4.09	5.7526
4.1	5.74438
4.11	5.74964
4.12	5.74405
4.13	5.73418
4.14	5.72201
4.15	5.72727
4.16	5.71477
4.17	5.72464
4.18	5.71707
4.19	5.72168
4.2	5.70424
4.21	5.71016
4.22	5.69766
4.23	5.69832
4.24	5.68089
4.25	5.68582
4.26	5.69898
4.27	5.68418
4.28	5.66444
4.29	5.6822
4.3	5.66279
4.31	5.67168
4.32	5.65951
4.33	5.64339
4.34	5.64832
4.35	5.65293
4.36	5.64404
4.37	5.62628
4.38	5.6401
4.39	5.63418
4.4	5.62135
4.41	5.61148
4.42	5.61608
4.43	5.62793
4.44	5.60753
4.45	5.61016
4.46	5.57924
4.47	5.60424
4.48	5.58911
4.49	5.58253
4.5	5.58944
4.51	5.59306
4.52	5.56279
4.53	5.57661
4.54	5.57332
4.55	5.59075
4.56	5.57266
4.57	5.56542
4.58	5.56904
4.59	5.55917
4.6	5.54963
4.61	5.5447
4.62	5.54371
4.63	5.53187
4.64	5.53088
4.65	5.53713
4.66	5.52891
4.67	5.52101
4.68	5.51772
4.69	5.5197
4.7	5.51476
4.71	5.51082
4.72	5.49075
4.73	5.50819
4.74	5.50786
4.75	5.50391
4.76	5.48647
4.77	5.49536
4.78	5.49305
4.79	5.50457
4.8	5.48384
4.81	5.48647
4.82	5.47989
4.83	5.47858
4.84	5.48483
4.85	5.47068
4.86	5.46279
4.87	5.46575
4.88	5.4595
4.89	5.47167
4.9	5.44437
4.91	5.44766
4.92	5.43943
4.93	5.43845
4.94	5.45062
4.95	5.43187
4.96	5.42167
4.97	5.42397
4.98	5.422
4.99	5.41608
5	5.43384
5.01	5.43384
5.02	5.41345
5.03	5.40588
5.04	5.4072
5.05	5.39535
5.06	5.40095
5.07	5.38285
5.08	5.40226
5.09	5.38154
5.1	5.38121
5.11	5.39141
5.12	5.38055
5.13	5.38877
5.14	5.36509
5.15	5.36937
5.16	5.35917
5.17	5.35686
5.18	5.3516
5.19	5.35621
5.2	5.34996
5.21	5.34634
5.22	5.34371
5.23	5.34075
5.24	5.32167
5.25	5.33318
5.26	5.32561
5.27	5.31706
5.28	5.3243
5.29	5.32627
5.3	5.32035
5.31	5.32167
5.32	5.31278
5.33	5.30588
5.34	5.30324
5.35	5.29305
5.36	5.29535
5.37	5.28548
5.38	5.29634
5.39	5.28055
5.4	5.27792
5.41	5.27199
5.42	5.27166
5.43	5.26969
5.44	5.27594
5.45	5.27199
5.46	5.27199
5.47	5.2641
5.48	5.25884
5.49	5.25226
5.5	5.2618
5.51	5.24765
5.52	5.23548
5.53	5.24337
5.54	5.23976
5.55	5.23745
5.56	5.22726
5.57	5.23153
5.58	5.23515
5.59	5.22199
5.6	5.21706
5.61	5.22166
5.62	5.21048
5.63	5.21377
5.64	5.21936
5.65	5.21804
5.66	5.22331
5.67	5.20094
5.68	5.20719
5.69	5.18811
5.7	5.19831
5.71	5.19929
5.72	5.18844
5.73	5.19008
5.74	5.19633
5.75	5.19074
5.76	5.18219
5.77	5.18975
5.78	5.18614
5.79	5.16739
5.8	5.16344
5.81	5.17002
5.82	5.15488
5.83	5.15587
5.84	5.16179
5.85	5.14896
5.86	5.15094
5.87	5.14271
5.88	5.15752
5.89	5.14831
5.9	5.1335
5.91	5.13252
5.92	5.14271
5.93	5.13252
5.94	5.12429
5.95	5.13021
5.96	5.12791
5.97	5.12232
5.98	5.11673
5.99	5.12199
6	5.12363
6.01	5.10028
6.02	5.11048
6.03	5.11048
6.04	5.1062
6.05	5.09501
6.06	5.10423
6.07	5.10028
6.08	5.09699
6.09	5.0835
6.1	5.10028
6.11	5.07396
6.12	5.08942
6.13	5.05751
6.14	5.07429
6.15	5.07955
6.16	5.06047
6.17	5.05784
6.18	5.05982
6.19	5.07659
6.2	5.07265
6.21	5.06015
6.22	5.06311
6.23	5.05422
6.24	5.05455
6.25	5.0585
6.26	5.04304
6.27	5.03942
6.28	5.05225
6.29	5.04567
6.3	5.03185
6.31	5.03514
6.32	5.02692
6.33	5.01968
6.34	5.02429
6.35	5.03021
6.36	5.01278
6.37	5.02034
6.38	5.01442
6.39	5.00718
6.4	5.00225
6.41	5.00192
6.42	4.99929
6.43	5.00324
6.44	4.99764
6.45	5.00455
6.46	5.00718
6.47	4.99468
6.48	4.99172
6.49	4.9756
6.5	4.98712
6.51	4.98251
6.52	4.9881
6.53	4.97527
6.54	4.97198
6.55	4.97363
6.56	4.98152
6.57	4.9812
6.58	4.9881
6.59	4.97527
6.6	4.96837
6.61	4.97198
6.62	4.98152
6.63	4.97889
6.64	4.9687
6.65	4.95883
6.66	4.95817
6.67	4.95916
6.68	4.96804
6.69	4.95521
6.7	4.96113
6.71	4.95652
6.72	4.9608
6.73	4.93218
6.74	4.93448
6.75	4.93119
6.76	4.94238
6.77	4.95027
6.78	4.93744
6.79	4.91573
6.8	4.91935
6.81	4.9279
6.82	4.921
6.83	4.9108
6.84	4.90422
6.85	4.91211
6.86	4.89731
6.87	4.90685
6.88	4.91343
6.89	4.89435
6.9	4.88218
6.91	4.88909
6.92	4.88711
6.93	4.89271
6.94	4.90586
6.95	4.87692
6.96	4.87659
6.97	4.89369
6.98	4.8904
6.99	4.87396
7	4.87593
7.01	4.88086
7.02	4.87428
7.03	4.87132
7.04	4.87297
7.05	4.87363
7.06	4.8654
7.07	4.85817
7.08	4.85981
7.09	4.86474
7.1	4.8608
7.11	4.84863
7.12	4.84698
7.13	4.84797
7.14	4.83316
7.15	4.83941
7.16	4.84238
7.17	4.83284
7.18	4.84369
7.19	4.83152
7.2	4.82593
7.21	4.83251
7.22	4.82132
7.23	4.83876
7.24	4.83448
7.25	4.82823
7.26	4.82691
7.27	4.81277
7.28	4.8154
7.29	4.82889
7.3	4.82922
7.31	4.83613
7.32	4.81474
7.33	4.82889
7.34	4.80652
7.35	4.80323
7.36	4.81376
7.37	4.79994
7.38	4.81047
7.39	4.79435
7.4	4.77724
7.41	4.78843
7.42	4.7881
7.43	4.79928
7.44	4.79731
7.45	4.7983
7.46	4.79303
7.47	4.78876
7.48	4.78974
7.49	4.78283
7.5	4.78744
7.51	4.7983
7.52	4.77461
7.53	4.75718
7.54	4.76079
7.55	4.76277
7.56	4.76737
7.57	4.77922
7.58	4.76803
7.59	4.7802
7.6	4.76935
7.61	4.77132
7.62	4.77461
7.63	4.7631
7.64	4.76178
7.65	4.745
7.66	4.75191
7.67	4.77
7.68	4.7631
7.69	4.75027
7.7	4.74961
7.71	4.74237
7.72	4.7381
7.73	4.7427
7.74	4.75454
7.75	4.74171
7.76	4.73217
7.77	4.73217
7.78	4.73053
7.79	4.74435
7.8	4.74468
7.81	4.7256
7.82	4.72296
7.83	4.72033
7.84	4.72823
7.85	4.74073
7.86	4.74237
7.87	4.72165
7.88	4.72856
7.89	4.70619
7.9	4.70421
7.91	4.69467
7.92	4.70092
7.93	4.69961
7.94	4.72428
7.95	4.72263
7.96	4.71178
7.97	4.70388
7.98	4.69862
7.99	4.69961
8	4.69566
8.01	4.69994
8.02	4.69698
8.03	4.68546
8.04	4.67921
8.05	4.68612
8.06	4.67987
8.07	4.68546
8.08	4.6927
8.09	4.67987
8.1	4.6848
8.11	4.67592
8.12	4.6802
8.13	4.68283
8.14	4.66836
8.15	4.67691
8.16	4.66507
8.17	4.65684
8.18	4.65915
8.19	4.6654
8.2	4.67165
8.21	4.66803
8.22	4.66244
8.23	4.66803
8.24	4.67362
8.25	4.66934
8.26	4.67329
8.27	4.64928
8.28	4.66638
8.29	4.66309
8.3	4.67033
8.31	4.6598
8.32	4.65158
8.33	4.64599
8.34	4.63579
8.35	4.62888
8.36	4.64237
8.37	4.64072
8.38	4.64204
8.39	4.64665
8.4	4.64665
8.41	4.65191
8.42	4.64467
8.43	4.63086
8.44	4.6325
8.45	4.62329
8.46	4.62888
8.47	4.62296
8.48	4.62099
8.49	4.62724
8.5	4.62954
8.51	4.62362
8.52	4.61605
8.53	4.61211
8.54	4.6223
8.55	4.61408
8.56	4.60849
8.57	4.60882
8.58	4.60059
8.59	4.61507
8.6	4.61868
8.61	4.6052
8.62	4.59763
8.63	4.59566
8.64	4.61342
8.65	4.59763
8.66	4.5973
8.67	4.61375
8.68	4.60882
8.69	4.59664
8.7	4.59993
8.71	4.61046
8.72	4.62066
8.73	4.59664
8.74	4.59796
8.75	4.59335
8.76	4.58776
8.77	4.61178
8.78	4.59566
8.79	4.59237
8.8	4.58743
8.81	4.57066
8.82	4.58513
8.83	4.60322
8.84	4.59467
8.85	4.58283
8.86	4.57888
8.87	4.57296
8.88	4.57789
8.89	4.57
8.9	4.57559
8.91	4.58513
8.92	4.58118
8.93	4.58217
8.94	4.55684
8.95	4.56802
8.96	4.56177
8.97	4.5677
8.98	4.55487
8.99	4.55618
9	4.5677
9.01	4.56638
9.02	4.56046
9.03	4.56506
9.04	4.54401
9.05	4.54335
9.06	4.55487
9.07	4.55585
9.08	4.56145
9.09	4.56441
9.1	4.55552
9.11	4.55289
9.12	4.55717
9.13	4.5598
9.14	4.5473
9.15	4.53414
9.16	4.53019
9.17	4.53776
9.18	4.53414
9.19	4.54335
9.2	4.54862
9.21	4.53283
9.22	4.54664
9.23	4.55256
9.24	4.54566
9.25	4.53644
9.26	4.53316
9.27	4.52756
9.28	4.52263
9.29	4.51704
9.3	4.52723
9.31	4.52493
9.32	4.52592
9.33	4.52987
9.34	4.5246
9.35	4.51177
9.36	4.51408
9.37	4.52987
9.38	4.51737
9.39	4.50684
9.4	4.50651
9.41	4.51638
9.42	4.5098
9.43	4.50684
9.44	4.5144
9.45	4.50881
9.46	4.50256
9.47	4.51769
9.48	4.51737
9.49	4.51769
9.5	4.52164
9.51	4.51342
9.52	4.51079
9.53	4.50783
9.54	4.51079
9.55	4.50158
9.56	4.50421
9.57	4.50289
9.58	4.50322
9.59	4.50651
9.6	4.50092
9.61	4.51013
9.62	4.49269
9.63	4.49072
9.64	4.4996
9.65	4.49829
9.66	4.50026
9.67	4.49138
9.68	4.50421
9.69	4.49697
9.7	4.49236
9.71	4.49796
9.72	4.48677
9.73	4.49138
9.74	4.49401
9.75	4.48513
9.76	4.48579
9.77	4.49467
9.78	4.47789
9.79	4.49039
9.8	4.49171
9.81	4.49039
9.82	4.48447
9.83	4.47361
9.84	4.47427
9.85	4.4825
9.86	4.46375
9.87	4.46539
9.88	4.49072
9.89	4.48118
9.9	4.47065
9.91	4.46671
9.92	4.46078
9.93	4.45914
9.94	4.47
9.95	4.47526
9.96	4.47427
9.97	4.4575
9.98	4.46407
9.99	4.46802
10	4.46309
10.01	4.45092
10.02	4.44894
10.03	4.46243
10.04	4.45881
10.05	4.45421
10.06	4.46013
10.07	4.45092
10.08	4.45157
10.09	4.44927
10.1	4.44565
10.11	4.45782
10.12	4.45782
10.13	4.44598
10.14	4.44927
10.15	4.4519
10.16	4.45157
10.17	4.45881
10.18	4.45355
10.19	4.45486
10.2	4.44763
10.21	4.44335
10.22	4.43611
10.23	4.43348
10.24	4.4473
10.25	4.44302
10.26	4.42295
10.27	4.43611
10.28	4.43907
10.29	4.42986
10.3	4.42953
10.31	4.4246
10.32	4.42723
10.33	4.42559
10.34	4.43085
10.35	4.43644
10.36	4.42361
10.37	4.43249
10.38	4.43348
10.39	4.42592
10.4	4.4292
10.41	4.4292
10.42	4.4144
10.43	4.43348
10.44	4.42361
10.45	4.43184
10.46	4.41144
10.47	4.41506
10.48	4.41572
10.49	4.42986
10.5	4.42526
10.51	4.41802
10.52	4.41309
10.53	4.41901
10.54	4.42855
10.55	4.41638
10.56	4.41111
10.57	4.40322
10.58	4.41407
10.59	4.41341
10.6	4.39927
10.61	4.39335
10.62	4.39598
10.63	4.40782
10.64	4.40815
10.65	4.40585
10.66	4.41045
10.67	4.41407
10.68	4.40026
10.69	4.41605
10.7	4.40815
10.71	4.40651
10.72	4.40387
10.73	4.41473
10.74	4.41144
10.75	4.39466
10.76	4.41605
10.77	4.40157
10.78	4.40716
10.79	4.40486
10.8	4.40881
10.81	4.40881
10.82	4.38907
10.83	4.3894
10.84	4.39466
10.85	4.38677
10.86	4.39795
10.87	4.4019
10.88	4.39894
10.89	4.40157
10.9	4.40157
10.91	4.39302
10.92	4.38874
10.93	4.39565
10.94	4.39236
10.95	4.40552
10.96	4.39269
10.97	4.39302
10.98	4.3871
10.99	4.37361
11	4.37361
11.01	4.39006
11.02	4.37591
11.03	4.38414
11.04	4.38874
11.05	4.38348
11.06	4.38381
11.07	4.38381
11.08	4.3894
11.09	4.37822
11.1	4.39203
11.11	4.36868
11.12	4.37098
11.13	4.39269
11.14	4.36999
11.15	4.3644
11.16	4.37065
11.17	4.3746
11.18	4.36078
11.19	4.3792
11.2	4.36901
11.21	4.37328
11.22	4.37756
11.23	4.3848
11.24	4.36966
11.25	4.37953
11.26	4.37756
11.27	4.3644
11.28	4.36835
11.29	4.36637
11.3	4.37197
11.31	4.38743
11.32	4.38118
11.33	4.3746
11.34	4.37164
11.35	4.37065
11.36	4.36276
11.37	4.36966
11.38	4.36868
11.39	4.3621
11.4	4.35091
11.41	4.36144
11.42	4.35683
11.43	4.37394
11.44	4.3621
11.45	4.36341
11.46	4.36078
11.47	4.36868
11.48	4.36637
11.49	4.35124
11.5	4.35486
11.51	4.35387
11.52	4.34762
11.53	4.34565
11.54	4.34927
11.55	4.35749
11.56	4.35749
11.57	4.35256
11.58	4.34335
11.59	4.35223
11.6	4.35322
11.61	4.34598
11.62	4.35947
11.63	4.36637
11.64	4.36308
11.65	4.34302
11.66	4.35223
11.67	4.33907
11.68	4.35223
11.69	4.35124
11.7	4.35716
11.71	4.34729
11.72	4.34861
11.73	4.35618
11.74	4.34335
11.75	4.34664
11.76	4.34795
11.77	4.34368
11.78	4.34598
11.79	4.34631
11.8	4.35453
11.81	4.35289
11.82	4.36539
11.83	4.35256
11.84	4.33479
11.85	4.3496
11.86	4.33249
11.87	4.34499
11.88	4.33216
11.89	4.34927
11.9	4.35223
11.91	4.34006
11.92	4.33052
11.93	4.35058
11.94	4.34335
11.95	4.32821
11.96	4.32723
11.97	4.34729
11.98	4.33052
11.99	4.33216
12	4.3371
12.01	4.32723
12.02	4.33743
12.03	4.33775
12.04	4.34302
12.05	4.34269
12.06	4.34532
12.07	4.32986
12.08	4.33611
12.09	4.32821
12.1	4.32558
12.11	4.33315
12.12	4.31802
12.13	4.33414
12.14	4.34236
12.15	4.31769
12.16	4.32295
12.17	4.33743
12.18	4.33743
12.19	4.32789
12.2	4.30749
12.21	4.32229
12.22	4.31835
12.23	4.32065
12.24	4.32295
12.25	4.3144
12.26	4.32164
12.27	4.32558
12.28	4.32591
12.29	4.3246
12.3	4.31177
12.31	4.32427
12.32	4.32427
12.33	4.319
12.34	4.319
12.35	4.31506
12.36	4.31835
12.37	4.31769
12.38	4.32558
12.39	4.31571
12.4	4.30946
12.41	4.31571
12.42	4.32361
12.43	4.31703
12.44	4.3246
12.45	4.3121
12.46	4.30157
12.47	4.319
12.48	4.31407
12.49	4.3121
12.5	4.31736
12.51	4.30617
12.52	4.32098
12.53	4.31736
12.54	4.30683
12.55	4.30914
12.56	4.3065
12.57	4.29466
12.58	4.3065
12.59	4.30683
12.6	4.30782
12.61	4.31341
12.62	4.30387
12.63	4.30716
12.64	4.30223
12.65	4.31308
12.66	4.30914
12.67	4.30585
12.68	4.30124
12.69	4.30749
12.7	4.30617
12.71	4.30486
12.72	4.3065
12.73	4.30354
12.74	4.30321
12.75	4.30946
12.76	4.31144
12.77	4.30486
12.78	4.30848
12.79	4.29236
12.8	4.3121
12.81	4.29203
12.82	4.29532
12.83	4.29071
12.84	4.28874
12.85	4.294
12.86	4.30223
12.87	4.30914
12.88	4.30453
12.89	4.28677
12.9	4.29367
12.91	4.29795
12.92	4.30058
12.93	4.27986
12.94	4.27953
12.95	4.2792
12.96	4.2996
12.97	4.29302
12.98	4.28874
12.99	4.294
13	4.29302
13.01	4.29795
13.02	4.2996
13.03	4.29367
13.04	4.28545
13.05	4.29433
13.06	4.27163
13.07	4.28973
13.08	4.29663
13.09	4.29236
13.1	4.29367
13.11	4.28973
13.12	4.29071
13.13	4.30058
13.14	4.2894
13.15	4.29236
13.16	4.29104
13.17	4.29663
13.18	4.28808
13.19	4.27986
13.2	4.28019
13.21	4.28446
13.22	4.28315
13.23	4.29499
13.24	4.27854
13.25	4.28216
13.26	4.28907
13.27	4.27032
13.28	4.26966
13.29	4.28775
13.3	4.28841
13.31	4.28973
13.32	4.29335
13.33	4.29598
13.34	4.28545
13.35	4.28677
13.36	4.28249
13.37	4.28841
13.38	4.27459
13.39	4.28249
13.4	4.28709
13.41	4.27624
13.42	4.26769
13.43	4.26867
13.44	4.2713
13.45	4.27262
13.46	4.26144
13.47	4.26769
13.48	4.27427
13.49	4.26834
13.5	4.28611
13.51	4.26341
13.52	4.27229
13.53	4.27032
13.54	4.27295
13.55	4.27032
13.56	4.27361
13.57	4.28216
13.58	4.27229
13.59	4.26374
13.6	4.26341
13.61	4.2792
13.62	4.28381
13.63	4.27098
13.64	4.27361
13.65	4.2667
13.66	4.25946
13.67	4.25683
13.68	4.26769
13.69	4.26571
13.7	4.26571
13.71	4.27032
13.72	4.2815
13.73	4.26769
13.74	4.27065
13.75	4.27887
13.76	4.26802
13.77	4.26242
13.78	4.26473
13.79	4.26637
13.8	4.27262
13.81	4.26933
13.82	4.26473
13.83	4.26571
13.84	4.26078
13.85	4.25946
13.86	4.27525
13.87	4.25387
13.88	4.27065
13.89	4.26374
13.9	4.25255
13.91	4.27229
13.92	4.26637
13.93	4.26111
13.94	4.24894
13.95	4.24861
13.96	4.27163
13.97	4.2667
13.98	4.25354
13.99	4.26966
14	4.24696
14.01	4.26736
14.02	4.25782
14.03	4.24992
14.04	4.24466
14.05	4.24663
14.06	4.26275
14.07	4.26505
14.08	4.25519
14.09	4.25486
14.1	4.25913
14.11	4.26177
14.12	4.25815
14.13	4.25321
14.14	4.24861
14.15	4.2565
14.16	4.24269
14.17	4.24532
14.18	4.26571
14.19	4.25223
14.2	4.25716
14.21	4.25255
14.22	4.26144
14.23	4.26078
14.24	4.26144
14.25	4.2463
14.26	4.26078
14.27	4.24499
14.28	4.23676
14.29	4.24236
14.3	4.24729
14.31	4.25321
14.32	4.24762
14.33	4.25223
14.34	4.25683
14.35	4.25519
14.36	4.26045
14.37	4.24499
14.38	4.25091
14.39	4.24565
14.4	4.24565
14.41	4.25519
14.42	4.24894
14.43	4.2417
14.44	4.23216
14.45	4.25025
14.46	4.23446
14.47	4.23578
14.48	4.24926
14.49	4.23676
14.5	4.24367
14.51	4.24038
14.52	4.23676
14.53	4.24894
14.54	4.24104
14.55	4.23347
14.56	4.24926
14.57	4.23446
14.58	4.24992
14.59	4.27196
14.6	4.27459
14.61	4.24466
14.62	4.23808
14.63	4.25255
14.64	4.24137
14.65	4.24499
14.66	4.24598
14.67	4.25091
14.68	4.25519
14.69	4.24959
14.7	4.24696
14.71	4.22624
14.72	4.23019
14.73	4.23282
14.74	4.2417
14.75	4.24137
14.76	4.23742
14.77	4.22986
14.78	4.23709
14.79	4.24696
14.8	4.23578
14.81	4.25486
14.82	4.23874
14.83	4.23742
14.84	4.24795
14.85	4.23446
14.86	4.25025
14.87	4.25025
14.88	4.23874
14.89	4.25124
14.9	4.23611
14.91	4.23446
14.92	4.2315
14.93	4.22459
14.94	4.2417
14.95	4.24334
14.96	4.22755
14.97	4.23676
14.98	4.24433
14.99	4.23742
15	4.23611
15.01	4.24959
15.02	4.24301
15.03	4.2417
15.04	4.23874
15.05	4.2417
15.06	4.23545
15.07	4.23413
15.08	4.23051
15.09	4.22953
15.1	4.23413
15.11	4.2315
15.12	4.23183
15.13	4.23084
15.14	4.22821
15.15	4.22986
15.16	4.23742
15.17	4.2417
15.18	4.23479
15.19	4.22065
15.2	4.22295
15.21	4.23117
15.22	4.22394
15.23	4.24762
15.24	4.22854
15.25	4.22953
15.26	4.2315
15.27	4.23676
15.28	4.22426
15.29	4.2292
15.3	4.23216
15.31	4.23282
15.32	4.23512
15.33	4.23512
15.34	4.23019
15.35	4.23545
15.36	4.23545
15.37	4.23676
15.38	4.20683
15.39	4.22755
15.4	4.23315
15.41	4.22163
15.42	4.22426
15.43	4.21242
15.44	4.22525
15.45	4.23084
15.46	4.21867
15.47	4.22624
15.48	4.21604
15.49	4.23282
15.5	4.2338
15.51	4.22196
15.52	4.22788
15.53	4.24269
15.54	4.22525
15.55	4.22887
15.56	4.22854
15.57	4.2213
15.58	4.21341
15.59	4.22328
15.6	4.21867
15.61	4.21143
15.62	4.21768
15.63	4.22328
15.64	4.22426
15.65	4.23051
15.66	4.24236
15.67	4.22558
15.68	4.21834
15.69	4.21472
15.7	4.22328
15.71	4.22032
15.72	4.22591
15.73	4.22262
15.74	4.23249
15.75	4.22196
15.76	4.20518
15.77	4.22722
15.78	4.23479
15.79	4.21703
15.8	4.22163
15.81	4.20979
15.82	4.21571
15.83	4.21308
15.84	4.20979
15.85	4.22262
15.86	4.22558
15.87	4.21341
15.88	4.21275
15.89	4.21637
15.9	4.20913
15.91	4.22097
15.92	4.21308
15.93	4.21308
15.94	4.21538
15.95	4.20913
15.96	4.20782
15.97	4.20979
15.98	4.19795
15.99	4.21143
16	4.21176
16.01	4.21045
16.02	4.21736
16.03	4.21768
16.04	4.20782
16.05	4.19696
16.06	4.21637
16.07	4.219
16.08	4.21768
16.09	4.2065
16.1	4.20683
16.11	4.20486
16.12	4.20815
16.13	4.2292
16.14	4.22196
16.15	4.20453
16.16	4.21966
16.17	4.21341
16.18	4.2065
16.19	4.21308
16.2	4.21407
16.21	4.20091
16.22	4.21012
16.23	4.21275
16.24	4.21505
16.25	4.21571
16.26	4.21012
16.27	4.21209
16.28	4.21111
16.29	4.21242
16.3	4.22196
16.31	4.22097
16.32	4.21604
16.33	4.21341
16.34	4.21637
16.35	4.22065
16.36	4.2144
16.37	4.20222
16.38	4.22657
16.39	4.22755
16.4	4.2144
16.41	4.21736
16.42	4.21078
16.43	4.21407
16.44	4.21867
16.45	4.21176
16.46	4.21012
16.47	4.2167
16.48	4.21966
16.49	4.19071
16.5	4.19828
16.51	4.20551
16.52	4.20551
16.53	4.21966
16.54	4.23084
16.55	4.21768
16.56	4.21472
16.57	4.21867
16.58	4.21209
16.59	4.21834
16.6	4.22097
16.61	4.19861
16.62	4.20518
16.63	4.20222
16.64	4.20288
16.65	4.20749
16.66	4.21143
16.67	4.21933
16.68	4.20617
16.69	4.20518
16.7	4.20683
16.71	4.20847
16.72	4.19893
16.73	4.19828
16.74	4.20058
16.75	4.22163
16.76	4.21571
16.77	4.20913
16.78	4.21242
16.79	4.20453
16.8	4.20189
16.81	4.20815
16.82	4.19893
16.83	4.19663
16.84	4.20255
16.85	4.19795
16.86	4.19795
16.87	4.19795
16.88	4.19926
16.89	4.2088
16.9	4.20124
16.91	4.20058
16.92	4.19729
16.93	4.19005
16.94	4.19466
16.95	4.19564
16.96	4.19992
16.97	4.20091
16.98	4.20387
16.99	4.18907
17	4.19236
17.01	4.19038
17.02	4.18709
17.03	4.19893
17.04	4.20157
17.05	4.2167
17.06	4.21604
17.07	4.20518
17.08	4.194
17.09	4.20847
17.1	4.20716
17.11	4.20749
17.12	4.21604
17.13	4.20518
17.14	4.20091
17.15	4.20847
17.16	4.19828
17.17	4.20486
17.18	4.19663
17.19	4.18446
17.2	4.19663
17.21	4.2065
17.22	4.20255
17.23	4.20551
17.24	4.21012
17.25	4.2144
17.26	4.20189
17.27	4.19367
17.28	4.18972
17.29	4.20453
17.3	4.20486
17.31	4.20946
17.32	4.19203
17.33	4.20518
17.34	4.19893
17.35	4.20486
17.36	4.19466
17.37	4.18709
17.38	4.19334
17.39	4.20157
17.4	4.19367
17.41	4.19532
17.42	4.19334
17.43	4.19038
17.44	4.19992
17.45	4.18841
17.46	4.18808
17.47	4.18907
17.48	4.19433
17.49	4.20453
17.5	4.20913
17.51	4.19992
17.52	4.20354
17.53	4.18775
17.54	4.19532
17.55	4.19762
17.56	4.19466
17.57	4.19301
17.58	4.19992
17.59	4.18742
17.6	4.19597
17.61	4.20124
17.62	4.19071
17.63	4.19466
17.64	4.1917
17.65	4.19959
17.66	4.20157
17.67	4.20058
17.68	4.19663
17.69	4.20124
17.7	4.20486
17.71	4.19663
17.72	4.20157
17.73	4.19795
17.74	4.20913
17.75	4.20189
17.76	4.18413
17.77	4.20486
17.78	4.19268
17.79	4.19729
17.8	4.19926
17.81	4.19236
17.82	4.19236
17.83	4.19236
17.84	4.19104
17.85	4.19038
17.86	4.18808
17.87	4.17887
17.88	4.18907
17.89	4.20222
17.9	4.19466
17.91	4.18775
17.92	4.18314
17.93	4.19893
17.94	4.1917
17.95	4.19301
17.96	4.18709
17.97	4.1917
17.98	4.19893
17.99	4.18742
18	4.19696
18.01	4.18314
18.02	4.18084
18.03	4.17953
18.04	4.18413
18.05	4.18841
18.06	4.18841
18.07	4.18709
18.08	4.19499
18.09	4.17887
18.1	4.18018
18.11	4.18314
18.12	4.18051
18.13	4.17426
18.14	4.16933
18.15	4.17657
18.16	4.2042
18.17	4.19038
18.18	4.17722
18.19	4.17031
18.2	4.19071
18.21	4.1963
18.22	4.18907
18.23	4.1838
18.24	4.1736
18.25	4.17163
18.26	4.17459
18.27	4.18479
18.28	4.19005
18.29	4.1963
18.3	4.18775
18.31	4.19762
18.32	4.18972
18.33	4.17657
18.34	4.17788
18.35	4.18676
18.36	4.1838
18.37	4.1861
18.38	4.17459
18.39	4.18413
18.4	4.18907
18.41	4.17689
18.42	4.19762
18.43	4.18643
18.44	4.17426
18.45	4.17985
18.46	4.18249
18.47	4.18282
18.48	4.18907
18.49	4.18413
18.5	4.17558
18.51	4.17558
18.52	4.18479
18.53	4.17229
18.54	4.17953
18.55	4.18545
18.56	4.17591
18.57	4.1838
18.58	4.18314
18.59	4.18413
18.6	4.17657
18.61	4.17459
18.62	4.18479
18.63	4.19301
18.64	4.1838
18.65	4.18512
18.66	4.17887
18.67	4.19005
18.68	4.19301
18.69	4.19729
18.7	4.17229
18.71	4.1792
18.72	4.18907
18.73	4.17985
18.74	4.18183
18.75	4.17262
18.76	4.17558
18.77	4.18282
18.78	4.18479
18.79	4.1838
18.8	4.18676
18.81	4.18084
18.82	4.17492
18.83	4.18216
18.84	4.19137
18.85	4.16999
18.86	4.19696
18.87	4.18051
18.88	4.17689
18.89	4.19367
18.9	4.19268
18.91	4.1861
18.92	4.18578
18.93	4.18249
18.94	4.18479
18.95	4.18972
18.96	4.19729
18.97	4.19499
18.98	4.18808
18.99	4.18742
19	4.18018
19.01	4.18676
19.02	4.18216
19.03	4.18084
19.04	4.169
19.05	4.16834
19.06	4.17558
19.07	4.18676
19.08	4.17788
19.09	4.19532
19.1	4.16834
19.11	4.1815
19.12	4.17525
19.13	4.17624
19.14	4.18479
19.15	4.19104
19.16	4.1838
19.17	4.17031
19.18	4.17887
19.19	4.18051
19.2	4.18479
19.21	4.17624
19.22	4.1713
19.23	4.16933
19.24	4.17887
19.25	4.18545
19.26	4.1838
19.27	4.18018
19.28	4.1713
19.29	4.16275
19.3	4.17426
19.31	4.17031
19.32	4.17854
19.33	4.17558
19.34	4.17788
19.35	4.17821
19.36	4.17262
19.37	4.18413
19.38	4.17722
19.39	4.18051
19.4	4.17426
19.41	4.16703
19.42	4.16242
19.43	4.16472
19.44	4.16768
19.45	4.17821
19.46	4.17953
19.47	4.1713
19.48	4.17985
19.49	4.16966
19.5	4.16538
19.51	4.17031
19.52	4.16406
19.53	4.16209
19.54	4.17591
19.55	4.17229
19.56	4.16604
19.57	4.17953
19.58	4.16933
19.59	4.17953
19.6	4.1815
19.61	4.17591
19.62	4.17624
19.63	4.17492
19.64	4.17031
19.65	4.18051
19.66	4.16439
19.67	4.16242
19.68	4.17393
19.69	4.17426
19.7	4.18643
19.71	4.16768
19.72	4.16505
19.73	4.1713
19.74	4.16966
19.75	4.14926
19.76	4.16275
19.77	4.16801
19.78	4.17328
19.79	4.17393
19.8	4.17262
19.81	4.16801
19.82	4.17689
19.83	4.18512
19.84	4.17097
19.85	4.16439
19.86	4.17031
19.87	4.16933
19.88	4.17722
19.89	4.1611
19.9	4.15584
19.91	4.16374
19.92	4.15321
19.93	4.1588
19.94	4.1565
19.95	4.16406
19.96	4.16341
19.97	4.17031
19.98	4.16308
19.99	4.15946
20	4.15716
20.01	4.15551
20.02	4.16275
20.03	4.18676
20.04	4.16374
20.05	4.1792
20.06	4.17163
20.07	4.18084
20.08	4.16933
20.09	4.17492
20.1	4.17262
20.11	4.15946
20.12	4.15946
20.13	4.16933
20.14	4.16472
20.15	4.17229
20.16	4.17821
20.17	4.16045
20.18	4.15716
20.19	4.17624
20.2	4.17657
20.21	4.16374
20.22	4.16604
20.23	4.17887
20.24	4.17788
20.25	4.16571
20.26	4.15913
20.27	4.15485
20.28	4.15716
20.29	4.17229
20.3	4.17064
20.31	4.17097
20.32	4.16242
20.33	4.15814
20.34	4.16341
20.35	4.17163
20.36	4.16308
20.37	4.17196
20.38	4.16406
20.39	4.1667
20.4	4.1792
20.41	4.16505
20.42	4.15716
20.43	4.15091
20.44	4.18084
20.45	4.17229
20.46	4.16143
20.47	4.1815
20.48	4.17229
20.49	4.169
20.5	4.17657
20.51	4.18018
20.52	4.16012
20.53	4.17163
20.54	4.17821
20.55	4.16176
20.56	4.16735
20.57	4.17459
20.58	4.1565
20.59	4.16308
20.6	4.17295
20.61	4.17262
20.62	4.16406
20.63	4.16374
20.64	4.16637
20.65	4.16703
20.66	4.17031
20.67	4.17031
20.68	4.17097
20.69	4.16801
20.7	4.15584
20.71	4.16472
20.72	4.16439
20.73	4.15551
20.74	4.15683
20.75	4.17459
20.76	4.16143
20.77	4.16538
20.78	4.169
20.79	4.16604
20.8	4.1792
20.81	4.17295
20.82	4.16341
20.83	4.16538
20.84	4.17295
20.85	4.17492
20.86	4.18413
20.87	4.16834
20.88	4.15452
20.89	4.1542
20.9	4.16308
20.91	4.16374
20.92	4.15913
20.93	4.1611
20.94	4.17097
20.95	4.16143
20.96	4.17163
20.97	4.17295
20.98	4.16374
20.99	4.16472
21	4.16801
21.01	4.1713
21.02	4.17097
21.03	4.1667
21.04	4.16406
21.05	4.16637
21.06	4.16538
21.07	4.16735
21.08	4.17821
21.09	4.16176
21.1	4.1565
21.11	4.16242
21.12	4.16012
21.13	4.15518
21.14	4.16703
21.15	4.1667
21.16	4.16867
21.17	4.15946
21.18	4.15979
21.19	4.1588
21.2	4.17097
21.21	4.16735
21.22	4.16143
21.23	4.15584
21.24	4.17031
21.25	4.17393
21.26	4.16637
21.27	4.16176
21.28	4.17031
21.29	4.15979
21.3	4.15749
21.31	4.16867
21.32	4.16176
21.33	4.15584
21.34	4.16472
21.35	4.16341
21.36	4.15979
21.37	4.16933
21.38	4.15781
21.39	4.16571
21.4	4.16374
21.41	4.17196
21.42	4.16604
21.43	4.17229
21.44	4.1611
21.45	4.15156
21.46	4.14235
21.47	4.15847
21.48	4.15814
21.49	4.15716
21.5	4.16176
21.51	4.15485
21.52	4.17426
21.53	4.16867
21.54	4.15124
21.55	4.1588
21.56	4.15452
21.57	4.15255
21.58	4.16308
21.59	4.16374
21.6	4.15584
21.61	4.14992
21.62	4.15946
21.63	4.1667
21.64	4.15781
21.65	4.15189
21.66	4.16308
21.67	4.15321
21.68	4.14235
21.69	4.15847
21.7	4.15979
21.71	4.15288
21.72	4.1588
21.73	4.15781
21.74	4.15847
21.75	4.16406
21.76	4.15124
21.77	4.1463
21.78	4.15781
21.79	4.15288
21.8	4.14992
21.81	4.16341
21.82	4.15683
21.83	4.15847
21.84	4.15222
21.85	4.16604
21.86	4.15847
21.87	4.15518
21.88	4.15156
21.89	4.15781
21.9	4.15617
21.91	4.15189
21.92	4.15387
21.93	4.16571
21.94	4.15518
21.95	4.1565
21.96	4.16439
21.97	4.16012
21.98	4.16209
21.99	4.15716
22	4.14663
22.01	4.16801
22.02	4.16341
22.03	4.14499
22.04	4.15288
22.05	4.15485
22.06	4.1542
22.07	4.15749
22.08	4.14499
22.09	4.15485
22.1	4.14926
22.11	4.14926
22.12	4.14893
22.13	4.16143
22.14	4.1588
22.15	4.17031
22.16	4.15025
22.17	4.15452
22.18	4.14005
22.19	4.14466
22.2	4.15387
22.21	4.14959
22.22	4.13841
22.23	4.14762
22.24	4.1611
22.25	4.15288
22.26	4.15189
22.27	4.15485
22.28	4.1486
22.29	4.15321
22.3	4.14531
22.31	4.15288
22.32	4.15124
22.33	4.15288
22.34	4.14992
22.35	4.15321
22.36	4.15387
22.37	4.14893
22.38	4.15551
22.39	4.14104
22.4	4.14301
22.41	4.15781
22.42	4.15617
22.43	4.15189
22.44	4.16209
22.45	4.15683
22.46	4.1486
22.47	4.15091
22.48	4.14729
22.49	4.15847
22.5	4.13808
22.51	4.14071
22.52	4.15058
22.53	4.15156
22.54	4.14268
22.55	4.13808
22.56	4.15452
22.57	4.14893
22.58	4.15321
22.59	4.1542
22.6	4.13347
22.61	4.1463
22.62	4.13643
22.63	4.14499
22.64	4.13972
22.65	4.15617
22.66	4.15485
22.67	4.15288
22.68	4.14433
22.69	4.13939
22.7	4.13479
22.71	4.12854
22.72	4.13939
22.73	4.15946
22.74	4.16472
22.75	4.15387
22.76	4.14499
22.77	4.13479
22.78	4.14564
22.79	4.15189
22.8	4.14499
22.81	4.14827
22.82	4.15156
22.83	4.14531
22.84	4.13841
22.85	4.14137
22.86	4.15288
22.87	4.15847
22.88	4.15551
22.89	4.14499
22.9	4.14235
22.91	4.14926
22.92	4.15452
22.93	4.15222
22.94	4.1463
22.95	4.16012
22.96	4.14301
22.97	4.1338
22.98	4.14597
22.99	4.14827
23	4.14729
23.01	4.15452
23.02	4.15617
23.03	4.14597
23.04	4.13676
23.05	4.1486
23.06	4.14268
23.07	4.14795
23.08	4.14795
23.09	4.15354
23.1	4.1611
23.11	4.13676
23.12	4.13446
23.13	4.15847
23.14	4.15452
23.15	4.15551
23.16	4.15124
23.17	4.14367
23.18	4.13775
23.19	4.15847
23.2	4.16472
23.21	4.15518
23.22	4.15156
23.23	4.16308
23.24	4.14959
23.25	4.144
23.26	4.13643
23.27	4.16078
23.28	4.15156
23.29	4.15617
23.3	4.14729
23.31	4.14597
23.32	4.1315
23.33	4.1338
23.34	4.1463
23.35	4.14827
23.36	4.13216
23.37	4.12623
23.38	4.14827
23.39	4.14597
23.4	4.14663
23.41	4.15518
23.42	4.144
23.43	4.14762
23.44	4.15025
23.45	4.14038
23.46	4.14202
23.47	4.14104
23.48	4.144
23.49	4.14334
23.5	4.14762
23.51	4.14301
23.52	4.1417
23.53	4.13643
23.54	4.14959
23.55	4.144
23.56	4.144
23.57	4.13775
23.58	4.13117
23.59	4.13841
23.6	4.14334
23.61	4.14531
23.62	4.14301
23.63	4.13577
23.64	4.14531
23.65	4.14466
23.66	4.1486
23.67	4.13479
23.68	4.13906
23.69	4.13841
23.7	4.14992
23.71	4.14466
23.72	4.14005
23.73	4.14005
23.74	4.14466
23.75	4.14466
23.76	4.13413
23.77	4.13413
23.78	4.13676
23.79	4.144
23.8	4.15814
23.81	4.15946
23.82	4.14499
23.83	4.14531
23.84	4.15255
23.85	4.12623
23.86	4.14334
23.87	4.14235
23.88	4.15617
23.89	4.15124
23.9	4.13413
23.91	4.13939
23.92	4.1361
23.93	4.13939
23.94	4.14038
23.95	4.15156
23.96	4.14202
23.97	4.14663
23.98	4.14466
23.99	4.14235
24	4.1417
24.01	4.14071
24.02	4.14104
24.03	4.13413
24.04	4.13545
24.05	4.14301
24.06	4.14071
24.07	4.14104
24.08	4.14071
24.09	4.14301
24.1	4.14926
24.11	4.14104
24.12	4.1338
24.13	4.1542
24.14	4.14038
24.15	4.13512
24.16	4.14038
24.17	4.14466
24.18	4.14795
24.19	4.13314
24.2	4.14762
24.21	4.1292
24.22	4.1417
24.23	4.1292
24.24	4.12262
24.25	4.12722
24.26	4.15716
24.27	4.14433
24.28	4.14071
24.29	4.13545
24.3	4.14334
24.31	4.13841
24.32	4.14137
24.33	4.15255
24.34	4.14499
24.35	4.14663
24.36	4.13051
24.37	4.13512
24.38	4.14268
24.39	4.13709
24.4	4.13972
24.41	4.13051
24.42	4.14959
24.43	4.14696
24.44	4.13643
24.45	4.13248
24.46	4.14005
24.47	4.1417
24.48	4.14466
24.49	4.16341
24.5	4.15156
24.51	4.14367
24.52	4.14531
24.53	4.14795
24.54	4.14334
24.55	4.13709
24.56	4.13939
24.57	4.15387
24.58	4.13939
24.59	4.14696
24.6	4.14827
24.61	4.13939
24.62	4.14038
24.63	4.14235
24.64	4.14531
24.65	4.13446
24.66	4.1486
24.67	4.15222
24.68	4.14202
24.69	4.13479
24.7	4.14959
24.71	4.14531
24.72	4.14367
24.73	4.14466
24.74	4.13577
24.75	4.13709
24.76	4.14827
24.77	4.14531
24.78	4.13545
24.79	4.14992
24.8	4.15617
24.81	4.13939
24.82	4.13281
24.83	4.14926
24.84	4.14137
24.85	4.12821
24.86	4.13446
24.87	4.1315
24.88	4.14499
24.89	4.13775
24.9	4.1292
24.91	4.144
24.92	4.13841
24.93	4.13709
24.94	4.13413
24.95	4.15189
24.96	4.13545
24.97	4.14071
24.98	4.13939
24.99	4.12492
25	4.1315
25.01	4.1315
25.02	4.13117
25.03	4.1213
25.04	4.13643
25.05	4.13874
25.06	4.14235
25.07	4.14071
25.08	4.12656
25.09	4.13906
25.1	4.14795
25.11	4.13808
25.12	4.12821
25.13	4.13051
25.14	4.14005
25.15	4.14071
25.16	4.14038
25.17	4.13709
25.18	4.13479
25.19	4.12656
25.2	4.1361
25.21	4.15551
25.22	4.12525
25.23	4.13643
25.24	4.15189
25.25	4.14564
25.26	4.12788
25.27	4.13084
25.28	4.14499
25.29	4.15321
25.3	4.15946
25.31	4.13446
25.32	4.13347
25.33	4.14038
25.34	4.15321
25.35	4.14729
25.36	4.12492
25.37	4.13775
25.38	4.12525
25.39	4.14564
25.4	4.13709
25.41	4.14663
25.42	4.12689
25.43	4.14466
25.44	4.13248
25.45	4.14893
25.46	4.14104
25.47	4.14005
25.48	4.14301
25.49	4.12952
25.5	4.12591
25.51	4.14235
25.52	4.13183
25.53	4.15124
25.54	4.13545
25.55	4.13018
25.56	4.13972
25.57	4.14959
25.58	4.13577
25.59	4.12854
25.6	4.1292
25.61	4.12952
25.62	4.13808
25.63	4.12952
25.64	4.12163
25.65	4.13742
25.66	4.13874
25.67	4.13413
25.68	4.1338
25.69	4.14137
25.7	4.14202
25.71	4.14729
25.72	4.14071
25.73	4.13084
25.74	4.13676
25.75	4.12788
25.76	4.1213
25.77	4.11867
25.78	4.12985
25.79	4.12196
25.8	4.12722
25.81	4.14433
25.82	4.13446
25.83	4.14827
25.84	4.13545
25.85	4.13545
25.86	4.13018
25.87	4.13808
25.88	4.13347
25.89	4.11637
25.9	4.1338
25.91	4.13051
25.92	4.12295
25.93	4.1236
25.94	4.14433
25.95	4.13084
25.96	4.12064
25.97	4.11834
25.98	4.1213
25.99	4.13709
26	4.13874
26.01	4.14597
26.02	4.1417
26.03	4.13972
26.04	4.1315
26.05	4.14235
26.06	4.13018
26.07	4.13183
26.08	4.12952
26.09	4.1315
26.1	4.13676
26.11	4.12656
26.12	4.14301
26.13	4.13216
26.14	4.13939
26.15	4.14268
26.16	4.14104
26.17	4.13972
26.18	4.13972
26.19	4.14663
26.2	4.14597
26.21	4.14926
26.22	4.14466
26.23	4.14499
26.24	4.13676
26.25	4.12459
26.26	4.12163
26.27	4.13051
26.28	4.12426
26.29	4.12887
26.3	4.14367
26.31	4.13446
26.32	4.12525
26.33	4.12064
26.34	4.12229
26.35	4.13972
26.36	4.14827
26.37	4.13939
26.38	4.12788
26.39	4.12755
26.4	4.13117
26.41	4.13906
26.42	4.1338
26.43	4.12196
26.44	4.13018
26.45	4.12821
26.46	4.12788
26.47	4.13709
26.48	4.13808
26.49	4.12985
26.5	4.1338
26.51	4.13742
26.52	4.13939
26.53	4.1292
26.54	4.13512
26.55	4.12656
26.56	4.13643
26.57	4.13446
26.58	4.13216
26.59	4.13117
26.6	4.13183
26.61	4.12821
26.62	4.11966
26.63	4.12262
26.64	4.12393
26.65	4.12327
26.66	4.12196
26.67	4.12689
26.68	4.12591
26.69	4.1315
26.7	4.12163
26.71	4.12327
26.72	4.13775
26.73	4.12887
26.74	4.13545
26.75	4.13117
26.76	4.13808
26.77	4.14926
26.78	4.14531
26.79	4.1417
26.8	4.13775
26.81	4.12459
26.82	4.12887
26.83	4.12426
26.84	4.12788
26.85	4.1236
26.86	4.12623
26.87	4.13742
26.88	4.1315
26.89	4.13183
26.9	4.13216
26.91	4.14005
26.92	4.14531
26.93	4.13084
26.94	4.13709
26.95	4.15091
26.96	4.14202
26.97	4.13808
26.98	4.13939
26.99	4.14202
27	4.13117
27.01	4.1338
27.02	4.14795
27.03	4.1315
27.04	4.13479
27.05	4.13314
27.06	4.13446
27.07	4.1361
27.08	4.12558
27.09	4.13545
27.1	4.1417
27.11	4.11998
27.12	4.12097
27.13	4.12459
27.14	4.13775
27.15	4.14959
27.16	4.14499
27.17	4.15025
27.18	4.13347
27.19	4.13183
27.2	4.13874
27.21	4.12163
27.22	4.11966
27.23	4.13248
27.24	4.1213
27.25	4.12821
27.26	4.13676
27.27	4.12031
27.28	4.11834
27.29	4.1315
27.3	4.12952
27.31	4.14071
27.32	4.1315
27.33	4.119
27.34	4.11768
27.35	4.12525
27.36	4.12854
27.37	4.12295
27.38	4.12393
27.39	4.13216
27.4	4.12393
27.41	4.1338
27.42	4.13183
27.43	4.12163
27.44	4.13051
27.45	4.12426
27.46	4.12393
27.47	4.12163
27.48	4.11998
27.49	4.12689
27.5	4.1315
27.51	4.13183
27.52	4.13479
27.53	4.13906
27.54	4.1292
27.55	4.12064
27.56	4.12656
27.57	4.1338
27.58	4.13775
27.59	4.13972
27.6	4.12393
27.61	4.12788
27.62	4.13347
27.63	4.13577
27.64	4.13281
27.65	4.12591
27.66	4.12985
27.67	4.12525
27.68	4.13874
27.69	4.13314
27.7	4.13051
27.71	4.14433
27.72	4.13084
27.73	4.1338
27.74	4.13248
27.75	4.13084
27.76	4.13479
27.77	4.13018
27.78	4.12788
27.79	4.11933
27.8	4.13545
27.81	4.12755
27.82	4.12887
27.83	4.11998
27.84	4.13446
27.85	4.13545
27.86	4.12031
27.87	4.12755
27.88	4.13248
27.89	4.13413
27.9	4.12656
27.91	4.12327
27.92	4.11669
27.93	4.12262
27.94	4.12952
27.95	4.12854
27.96	4.1236
27.97	4.13643
27.98	4.13972
27.99	4.14071
28	4.1361
28.01	4.14367
28.02	4.12755
28.03	4.12064
28.04	4.11933
28.05	4.11505
28.06	4.13512
28.07	4.12525
28.08	4.12952
28.09	4.13347
28.1	4.13084
28.11	4.1315
28.12	4.13314
28.13	4.12426
28.14	4.12788
28.15	4.11966
28.16	4.11966
28.17	4.11275
28.18	4.12591
28.19	4.12755
28.2	4.12229
28.21	4.12229
28.22	4.12887
28.23	4.12097
28.24	4.11801
28.25	4.1338
28.26	4.11439
28.27	4.1315
28.28	4.12064
28.29	4.119
28.3	4.12821
28.31	4.12196
28.32	4.11505
28.33	4.10946
28.34	4.12459
28.35	4.11669
28.36	4.11702
28.37	4.1236
28.38	4.11768
28.39	4.12887
28.4	4.1213
28.41	4.1315
28.42	4.11702
28.43	4.13117
28.44	4.12656
28.45	4.13084
28.46	4.12755
28.47	4.12426
28.48	4.12755
28.49	4.12887
28.5	4.1315
28.51	4.14137
28.52	4.13742
28.53	4.12985
28.54	4.10979
28.55	4.1292
28.56	4.12426
28.57	4.14104
28.58	4.13676
28.59	4.12492
28.6	4.13084
28.61	4.13874
28.62	4.12985
28.63	4.12064
28.64	4.12459
28.65	4.11143
28.66	4.12821
28.67	4.12623
28.68	4.12689
28.69	4.13281
28.7	4.1463
28.71	4.12788
28.72	4.11933
28.73	4.12854
28.74	4.12689
28.75	4.11406
28.76	4.10781
28.77	4.11669
28.78	4.12788
28.79	4.12689
28.8	4.12262
28.81	4.1236
28.82	4.13117
28.83	4.13676
28.84	4.1315
28.85	4.12623
28.86	4.12031
28.87	4.12492
28.88	4.12064
28.89	4.12887
28.9	4.12788
28.91	4.12525
28.92	4.12755
28.93	4.11439
28.94	4.11735
28.95	4.13117
28.96	4.13479
28.97	4.14235
28.98	4.12689
28.99	4.119
29	4.12591
29.01	4.14334
29.02	4.13084
29.03	4.12327
29.04	4.13775
29.05	4.1315
29.06	4.13413
29.07	4.12327
29.08	4.119
29.09	4.12854
29.1	4.12295
29.11	4.13051
29.12	4.12097
29.13	4.119
29.14	4.1292
29.15	4.12689
29.16	4.11735
29.17	4.11867
29.18	4.13577
29.19	4.12097
29.2	4.11571
29.21	4.12755
29.22	4.1236
29.23	4.12525
29.24	4.10913
29.25	4.11933
29.26	4.12327
29.27	4.13577
29.28	4.12656
29.29	4.11505
29.3	4.11472
29.31	4.11308
29.32	4.10288
29.33	4.12229
29.34	4.12031
29.35	4.11801
29.36	4.11406
29.37	4.12295
29.38	4.11933
29.39	4.11571
29.4	4.11538
29.41	4.12492
29.42	4.12722
29.43	4.11669
29.44	4.10123
29.45	4.1236
29.46	4.11604
29.47	4.12393
29.48	4.12788
29.49	4.12295
29.5	4.11669
29.51	4.11143
29.52	4.12064
29.53	4.11801
29.54	4.11966
29.55	4.12262
29.56	4.11242
29.57	4.11637
29.58	4.11209
29.59	4.11538
29.6	4.12591
29.61	4.12656
29.62	4.12163
29.63	4.10321
29.64	4.10222
29.65	4.12229
29.66	4.1361
29.67	4.11768
29.68	4.12064
29.69	4.11637
29.7	4.12492
29.71	4.12656
29.72	4.12788
29.73	4.11275
29.74	4.10617
29.75	4.10814
29.76	4.13446
29.77	4.12689
29.78	4.12821
29.79	4.11867
29.8	4.1236
29.81	4.12689
29.82	4.11768
29.83	4.1236
29.84	4.12459
29.85	4.12952
29.86	4.13051
29.87	4.13281
29.88	4.13577
29.89	4.11143
29.9	4.12196
29.91	4.11637
29.92	4.12163
29.93	4.12262
29.94	4.11472
29.95	4.12854
29.96	4.12229
29.97	4.11012
29.98	4.11637
29.99	4.10518
30	4.12031
