"BIO-KINE ASCII FILE"
"_COMMENT"	"MOS-500 Spectrometer"
"_COMMENT"	"Kinetics measurement"
"_COMMENT"	"Y Unit : Volt,  X Unit : s"
"_COMMENT"	"Excitation wavelength : 380 nm"
"_COMMENT"	"Fentes bandwidth =  1 nm"
"_COMMENT"	"HV= 1000V"
"_COMMENT"	"Timebase  1 =  .01 s   5001 pts"
"_SFM"	"SFM-400 /S  Advanced mode"
"_SFM"	"Ratio : S1: 2.5, S2: 0, S3: 0, S4: 1"
"_SFM"	"Content : S1: , S2: , S3: , S4:"
"_SFM"	"Concentration : S1: , S2: , S3: , S4:"
"_SFM"	"Total volume : 209 µl  Flow : 3.5 mL/s"
"_SFM"	"Acquisition start :  10 ms before stop"
"_SFM"	"cuve=FC-15, s1=10 ml , s2=10 ml , s3=10 ml , s4=1.9 ml"
"_UNITX"	"s"
"_UNITY"	"Volt"
"_DELTAX"	0
"_DATA"
1e-300	2.665
0.01	2.65941
0.02	2.67125
0.03	2.70415
0.04	2.7331
0.05	2.76106
0.06	2.79198
0.07	2.77849
0.08	2.78376
0.09	2.84001
0.1	2.81797
0.11	2.83376
0.12	2.83475
0.13	2.8308
0.14	2.84527
0.15	2.83869
0.16	2.80613
0.17	2.85547
0.18	2.85777
0.19	2.87521
0.2	2.84527
0.21	2.83869
0.22	2.86534
0.23	2.866
0.24	2.87948
0.25	2.83211
0.26	2.8479
0.27	2.87718
0.28	2.87258
0.29	2.85711
0.3	2.85218
0.31	2.86633
0.32	2.86106
0.33	2.84593
0.34	2.87422
0.35	2.8535
0.36	2.89692
0.37	2.8558
0.38	2.86698
0.39	2.86863
0.4	2.85448
0.41	2.87915
0.42	2.84264
0.43	2.8729
0.44	2.85481
0.45	2.85415
0.46	2.85415
0.47	2.88212
0.48	2.88343
0.49	2.8535
0.5	2.87159
0.51	2.8604
0.52	2.87192
0.53	2.87192
0.54	2.85547
0.55	2.85218
0.56	2.85481
0.57	2.8683
0.58	2.841
0.59	2.86863
0.6	2.86073
0.61	2.88409
0.62	2.86698
0.63	2.84396
0.64	2.85909
0.65	2.88244
0.66	2.85415
0.67	2.88113
0.68	2.86929
0.69	2.83935
0.7	2.85185
0.71	2.87356
0.72	2.83836
0.73	2.82586
0.74	2.82685
0.75	2.87323
0.76	2.85679
0.77	2.84396
0.78	2.82718
0.79	2.8456
0.8	2.87751
0.81	2.87323
0.82	2.83672
0.83	2.82422
0.84	2.86271
0.85	2.83475
0.86	2.83211
0.87	2.87981
0.88	2.84494
0.89	2.84264
0.9	2.82521
0.91	2.84494
0.92	2.84757
0.93	2.86961
0.94	2.84034
0.95	2.83968
0.96	2.84692
0.97	2.83475
0.98	2.84461
0.99	2.85284
1	2.86172
1.01	2.87554
1.02	2.86369
1.03	2.83146
1.04	2.86172
1.05	2.86369
1.06	2.84231
1.07	2.81698
1.08	2.85086
1.09	2.88014
1.1	2.85185
1.11	2.87685
1.12	2.86698
1.13	2.84988
1.14	2.82553
1.15	2.84889
1.16	2.86863
1.17	2.84593
1.18	2.87981
1.19	2.8535
1.2	2.85481
1.21	2.86369
1.22	2.83343
1.23	2.84955
1.24	2.84988
1.25	2.80777
1.26	2.83211
1.27	2.85415
1.28	2.84001
1.29	2.82784
1.3	2.8433
1.31	2.83376
1.32	2.86139
1.33	2.82751
1.34	2.8285
1.35	2.8535
1.36	2.8206
1.37	2.78902
1.38	2.82323
1.39	2.86369
1.4	2.83047
1.41	2.84955
1.42	2.80448
1.43	2.81567
1.44	2.84757
1.45	2.85876
1.46	2.85152
1.47	2.85744
1.48	2.86665
1.49	2.87258
1.5	2.83178
1.51	2.86896
1.52	2.87389
1.53	2.8354
1.54	2.85547
1.55	2.84231
1.56	2.85218
1.57	2.8706
1.58	2.82455
1.59	2.86961
1.6	2.85317
1.61	2.80448
1.62	2.86008
1.63	2.83343
1.64	2.84988
1.65	2.82784
1.66	2.83047
1.67	2.83178
1.68	2.84955
1.69	2.82817
1.7	2.8433
1.71	2.83573
1.72	2.81698
1.73	2.82784
1.74	2.8229
1.75	2.8433
1.76	2.82455
1.77	2.82422
1.78	2.81139
1.79	2.84725
1.8	2.85251
1.81	2.84988
1.82	2.84363
1.83	2.83836
1.84	2.84429
1.85	2.86139
1.86	2.84889
1.87	2.84264
1.88	2.83738
1.89	2.8206
1.9	2.81896
1.91	2.83836
1.92	2.81764
1.93	2.83639
1.94	2.85382
1.95	2.85382
1.96	2.8433
1.97	2.83146
1.98	2.8331
1.99	2.81303
2	2.83244
2.01	2.8354
2.02	2.82027
2.03	2.81994
2.04	2.83968
2.05	2.84363
2.06	2.86073
2.07	2.80678
2.08	2.82685
2.09	2.80744
2.1	2.83113
2.11	2.82685
2.12	2.82027
2.13	2.82817
2.14	2.82751
2.15	2.8331
2.16	2.85251
2.17	2.81731
2.18	2.81336
2.19	2.81172
2.2	2.79034
2.21	2.77718
2.22	2.83343
2.23	2.8433
2.24	2.80843
2.25	2.80876
2.26	2.84165
2.27	2.83277
2.28	2.84988
2.29	2.8229
2.3	2.80678
2.31	2.83672
2.32	2.83475
2.33	2.83672
2.34	2.84461
2.35	2.79527
2.36	2.8058
2.37	2.83902
2.38	2.8104
2.39	2.80481
2.4	2.80317
2.41	2.82224
2.42	2.81632
2.43	2.81073
2.44	2.83409
2.45	2.80678
2.46	2.8183
2.47	2.79527
2.48	2.80613
2.49	2.83573
2.5	2.8081
2.51	2.7979
2.52	2.82455
2.53	2.84067
2.54	2.8331
2.55	2.82323
2.56	2.83573
2.57	2.83935
2.58	2.8308
2.59	2.79165
2.6	2.84494
2.61	2.82422
2.62	2.83672
2.63	2.82586
2.64	2.82619
2.65	2.85317
2.66	2.85679
2.67	2.84034
2.68	2.85942
2.69	2.80843
2.7	2.81303
2.71	2.86304
2.72	2.7979
2.73	2.79757
2.74	2.82027
2.75	2.82422
2.76	2.81007
2.77	2.78738
2.78	2.82784
2.79	2.81994
2.8	2.8081
2.81	2.81468
2.82	2.84461
2.83	2.8206
2.84	2.80086
2.85	2.80152
2.86	2.79757
2.87	2.81764
2.88	2.84955
2.89	2.83705
2.9	2.83771
2.91	2.84264
2.92	2.82915
2.93	2.84165
2.94	2.841
2.95	2.84297
2.96	2.82356
2.97	2.82093
2.98	2.84363
2.99	2.79395
3	2.78145
3.01	2.81994
3.02	2.80284
3.03	2.81863
3.04	2.8229
3.05	2.77389
3.06	2.80876
3.07	2.84494
3.08	2.80152
3.09	2.81501
3.1	2.78672
3.11	2.78803
3.12	2.82455
3.13	2.85613
3.14	2.82323
3.15	2.80909
3.16	2.80415
3.17	2.78705
3.18	2.81073
3.19	2.83771
3.2	2.81139
3.21	2.79922
3.22	2.82192
3.23	2.82257
3.24	2.82784
3.25	2.81863
3.26	2.8104
3.27	2.77915
3.28	2.78902
3.29	2.82159
3.3	2.84231
3.31	2.80613
3.32	2.82455
3.33	2.79395
3.34	2.79823
3.35	2.81435
3.36	2.8081
3.37	2.79988
3.38	2.81797
3.39	2.8308
3.4	2.79428
3.41	2.81106
3.42	2.81205
3.43	2.8229
3.44	2.79198
3.45	2.82488
3.46	2.79659
3.47	2.82553
3.48	2.82981
3.49	2.82784
3.5	2.82488
3.51	2.81928
3.52	2.82356
3.53	2.80448
3.54	2.80053
3.55	2.82356
3.56	2.83475
3.57	2.83738
3.58	2.8308
3.59	2.84297
3.6	2.81928
3.61	2.84363
3.62	2.81731
3.63	2.78409
3.64	2.81994
3.65	2.82389
3.66	2.82652
3.67	2.78705
3.68	2.77816
3.69	2.79659
3.7	2.82356
3.71	2.81271
3.72	2.8081
3.73	2.83113
3.74	2.77257
3.75	2.7627
3.76	2.79724
3.77	2.84494
3.78	2.84527
3.79	2.82882
3.8	2.80152
3.81	2.80777
3.82	2.80152
3.83	2.82619
3.84	2.8229
3.85	2.80547
3.86	2.81106
3.87	2.80349
3.88	2.81567
3.89	2.79922
3.9	2.80086
3.91	2.8354
3.92	2.81007
3.93	2.8206
3.94	2.79988
3.95	2.79593
3.96	2.80086
3.97	2.80086
3.98	2.83869
3.99	2.80547
4	2.80053
4.01	2.83343
4.02	2.83376
4.03	2.8331
4.04	2.8229
4.05	2.7956
4.06	2.80119
4.07	2.82586
4.08	2.82948
4.09	2.8285
4.1	2.83146
4.11	2.81797
4.12	2.77882
4.13	2.79823
4.14	2.77652
4.15	2.79856
4.16	2.79297
4.17	2.80645
4.18	2.80481
4.19	2.80613
4.2	2.77356
4.21	2.78376
4.22	2.83639
4.23	2.8002
4.24	2.80218
4.25	2.80613
4.26	2.82586
4.27	2.81698
4.28	2.82093
4.29	2.75908
4.3	2.73376
4.31	2.7831
4.32	2.8285
4.33	2.79659
4.34	2.80547
4.35	2.81139
4.36	2.84067
4.37	2.81139
4.38	2.79527
4.39	2.80481
4.4	2.75974
4.41	2.76994
4.42	2.81139
4.43	2.80909
4.44	2.81534
4.45	2.79593
4.46	2.75711
4.47	2.77586
4.48	2.76797
4.49	2.79988
4.5	2.80744
4.51	2.77356
4.52	2.78968
4.53	2.80876
4.54	2.81238
4.55	2.83014
4.56	2.8002
4.57	2.79494
4.58	2.82619
4.59	2.79066
4.6	2.80284
4.61	2.78869
4.62	2.76665
4.63	2.77882
4.64	2.8002
4.65	2.81435
4.66	2.79165
4.67	2.80349
4.68	2.79922
4.69	2.79034
4.7	2.79264
4.71	2.85317
4.72	2.84132
4.73	2.82488
4.74	2.80415
4.75	2.78573
4.76	2.81797
4.77	2.8206
4.78	2.74527
4.79	2.76534
4.8	2.81567
4.81	2.79692
4.82	2.78573
4.83	2.80382
4.84	2.84198
4.85	2.80777
4.86	2.77487
4.87	2.79198
4.88	2.80284
4.89	2.79034
4.9	2.81435
4.91	2.81698
4.92	2.8229
4.93	2.79034
4.94	2.77487
4.95	2.81073
4.96	2.83409
4.97	2.78376
4.98	2.79626
4.99	2.81501
5	2.77882
5.01	2.73737
5.02	2.79692
5.03	2.8229
5.04	2.79659
5.05	2.77356
5.06	2.80053
5.07	2.77816
5.08	2.79626
5.09	2.77685
5.1	2.77389
5.11	2.77816
5.12	2.7979
5.13	2.79692
5.14	2.80415
5.15	2.80317
5.16	2.77553
5.17	2.79066
5.18	2.80547
5.19	2.79363
5.2	2.81665
5.21	2.80185
5.22	2.8058
5.23	2.78836
5.24	2.79955
5.25	2.81534
5.26	2.78869
5.27	2.81303
5.28	2.81764
5.29	2.76764
5.3	2.77553
5.31	2.82027
5.32	2.80218
5.33	2.77882
5.34	2.79626
5.35	2.80086
5.36	2.76797
5.37	2.77751
5.38	2.77882
5.39	2.81994
5.4	2.82159
5.41	2.81369
5.42	2.80909
5.43	2.78639
5.44	2.83376
5.45	2.81863
5.46	2.78113
5.47	2.76797
5.48	2.78113
5.49	2.79132
5.5	2.7581
5.51	2.78507
5.52	2.79034
5.53	2.79626
5.54	2.77619
5.55	2.78573
5.56	2.79527
5.57	2.78014
5.58	2.78573
5.59	2.7877
5.6	2.80909
5.61	2.80218
5.62	2.80415
5.63	2.79066
5.64	2.75974
5.65	2.76534
5.66	2.79823
5.67	2.79001
5.68	2.78836
5.69	2.75941
5.7	2.7808
5.71	2.77981
5.72	2.77159
5.73	2.77257
5.74	2.77389
5.75	2.78968
5.76	2.79889
5.77	2.79264
5.78	2.79001
5.79	2.81534
5.8	2.79395
5.81	2.7877
5.82	2.78968
5.83	2.79494
5.84	2.81303
5.85	2.79988
5.86	2.78738
5.87	2.76534
5.88	2.76534
5.89	2.79757
5.9	2.80218
5.91	2.78573
5.92	2.8002
5.93	2.79955
5.94	2.81271
5.95	2.75218
5.96	2.76632
5.97	2.78803
5.98	2.77455
5.99	2.7854
6	2.79988
6.01	2.79494
6.02	2.76172
6.03	2.78507
6.04	2.76698
6.05	2.76369
6.06	2.78639
6.07	2.77191
6.08	2.7854
6.09	2.78869
6.1	2.78113
6.11	2.80514
6.12	2.7831
6.13	2.77751
6.14	2.77389
6.15	2.75185
6.16	2.77487
6.17	2.77159
6.18	2.75119
6.19	2.75908
6.2	2.77915
6.21	2.79856
6.22	2.78606
6.23	2.78935
6.24	2.78014
6.25	2.79395
6.26	2.78145
6.27	2.82422
6.28	2.76632
6.29	2.78145
6.3	2.78935
6.31	2.74395
6.32	2.77093
6.33	2.77718
6.34	2.7331
6.35	2.78705
6.36	2.78738
6.37	2.80218
6.38	2.78935
6.39	2.77718
6.4	2.77422
6.41	2.76731
6.42	2.78935
6.43	2.78441
6.44	2.7456
6.45	2.7752
6.46	2.80415
6.47	2.82422
6.48	2.79988
6.49	2.78935
6.5	2.78968
6.51	2.78902
6.52	2.79955
6.53	2.76468
6.54	2.75645
6.55	2.76731
6.56	2.78869
6.57	2.77191
6.58	2.78409
6.59	2.76632
6.6	2.75119
6.61	2.77981
6.62	2.80448
6.63	2.75218
6.64	2.77816
6.65	2.77356
6.66	2.7479
6.67	2.78606
6.68	2.77751
6.69	2.77422
6.7	2.7558
6.71	2.7456
6.72	2.73672
6.73	2.76665
6.74	2.76106
6.75	2.77323
6.76	2.79527
6.77	2.7581
6.78	2.76106
6.79	2.75612
6.8	2.75185
6.81	2.78343
6.82	2.80119
6.83	2.79988
6.84	2.81238
6.85	2.77784
6.86	2.76665
6.87	2.78113
6.88	2.76534
6.89	2.82323
6.9	2.76764
6.91	2.76369
6.92	2.79066
6.93	2.81238
6.94	2.76928
6.95	2.73672
6.96	2.76435
6.97	2.77784
6.98	2.80251
6.99	2.7683
7	2.76237
7.01	2.77224
7.02	2.81468
7.03	2.77882
7.04	2.7729
7.05	2.79988
7.06	2.75218
7.07	2.77849
7.08	2.7808
7.09	2.78507
7.1	2.8002
7.11	2.78343
7.12	2.76402
7.13	2.76402
7.14	2.76534
7.15	2.75645
7.16	2.75316
7.17	2.80415
7.18	2.7808
7.19	2.77784
7.2	2.78639
7.21	2.78705
7.22	2.79099
7.23	2.75481
7.24	2.78145
7.25	2.76402
7.26	2.76632
7.27	2.77882
7.28	2.82882
7.29	2.79922
7.3	2.79099
7.31	2.76599
7.32	2.77027
7.33	2.77191
7.34	2.75251
7.35	2.74494
7.36	2.72323
7.37	2.77751
7.38	2.78047
7.39	2.76534
7.4	2.74691
7.41	2.7831
7.42	2.77948
7.43	2.74362
7.44	2.75283
7.45	2.70711
7.46	2.77915
7.47	2.78836
7.48	2.78113
7.49	2.76172
7.5	2.7683
7.51	2.77224
7.52	2.77882
7.53	2.78244
7.54	2.77224
7.55	2.76566
7.56	2.7752
7.57	2.77948
7.58	2.76895
7.59	2.76468
7.6	2.76402
7.61	2.79066
7.62	2.7877
7.63	2.79231
7.64	2.7706
7.65	2.77159
7.66	2.74889
7.67	2.74889
7.68	2.75547
7.69	2.77948
7.7	2.75843
7.71	2.75382
7.72	2.7752
7.73	2.77323
7.74	2.78738
7.75	2.76862
7.76	2.76501
7.77	2.78244
7.78	2.78968
7.79	2.77685
7.8	2.78409
7.81	2.76402
7.82	2.74132
7.83	2.75119
7.84	2.75876
7.85	2.75843
7.86	2.75382
7.87	2.78507
7.88	2.74264
7.89	2.76007
7.9	2.74691
7.91	2.73507
7.92	2.75053
7.93	2.75514
7.94	2.73408
7.95	2.7604
7.96	2.7854
7.97	2.77389
7.98	2.7808
7.99	2.78047
8	2.78639
8.01	2.79198
8.02	2.75941
8.03	2.76764
8.04	2.77948
8.05	2.77191
8.06	2.74001
8.07	2.7683
8.08	2.77487
8.09	2.78803
8.1	2.76731
8.11	2.78277
8.12	2.79001
8.13	2.77751
8.14	2.75843
8.15	2.7502
8.16	2.75876
8.17	2.76172
8.18	2.77882
8.19	2.76928
8.2	2.76566
8.21	2.77159
8.22	2.77718
8.23	2.75711
8.24	2.76698
8.25	2.78507
8.26	2.77586
8.27	2.75152
8.28	2.73014
8.29	2.76139
8.3	2.80053
8.31	2.79659
8.32	2.76336
8.33	2.76369
8.34	2.76566
8.35	2.78145
8.36	2.78211
8.37	2.79034
8.38	2.75119
8.39	2.79066
8.4	2.78113
8.41	2.7877
8.42	2.77849
8.43	2.75941
8.44	2.77784
8.45	2.75547
8.46	2.78803
8.47	2.7706
8.48	2.7933
8.49	2.74757
8.5	2.78244
8.51	2.77915
8.52	2.7831
8.53	2.78277
8.54	2.79593
8.55	2.74165
8.56	2.72586
8.57	2.74856
8.58	2.78409
8.59	2.7979
8.6	2.75218
8.61	2.72915
8.62	2.76797
8.63	2.7683
8.64	2.77948
8.65	2.75382
8.66	2.7502
8.67	2.72783
8.68	2.75843
8.69	2.74955
8.7	2.73573
8.71	2.76369
8.72	2.76237
8.73	2.76237
8.74	2.73737
8.75	2.76764
8.76	2.79494
8.77	2.79922
8.78	2.77586
8.79	2.75086
8.8	2.75053
8.81	2.78145
8.82	2.7706
8.83	2.76501
8.84	2.77257
8.85	2.75876
8.86	2.76566
8.87	2.77849
8.88	2.76928
8.89	2.76797
8.9	2.79231
8.91	2.80645
8.92	2.76566
8.93	2.74626
8.94	2.7979
8.95	2.74527
8.96	2.74593
8.97	2.76632
8.98	2.78672
8.99	2.76336
9	2.76665
9.01	2.79001
9.02	2.78672
9.03	2.7752
9.04	2.73935
9.05	2.73968
9.06	2.74198
9.07	2.74987
9.08	2.75481
9.09	2.74165
9.1	2.74264
9.11	2.77422
9.12	2.79034
9.13	2.81106
9.14	2.77323
9.15	2.78047
9.16	2.76172
9.17	2.76994
9.18	2.74231
9.19	2.73079
9.2	2.77751
9.21	2.75119
9.22	2.76764
9.23	2.74395
9.24	2.72783
9.25	2.74691
9.26	2.76862
9.27	2.76895
9.28	2.7581
9.29	2.76862
9.3	2.76369
9.31	2.78803
9.32	2.77553
9.33	2.75678
9.34	2.76895
9.35	2.79593
9.36	2.76534
9.37	2.75514
9.38	2.7706
9.39	2.77356
9.4	2.76435
9.41	2.7502
9.42	2.77586
9.43	2.74823
9.44	2.7831
9.45	2.77191
9.46	2.73803
9.47	2.75283
9.48	2.75711
9.49	2.78738
9.5	2.78376
9.51	2.76632
9.52	2.77948
9.53	2.78343
9.54	2.77586
9.55	2.78474
9.56	2.75711
9.57	2.74066
9.58	2.70744
9.59	2.76237
9.6	2.7581
9.61	2.78738
9.62	2.80613
9.63	2.75218
9.64	2.71566
9.65	2.74132
9.66	2.73803
9.67	2.77586
9.68	2.78441
9.69	2.78409
9.7	2.77849
9.71	2.79001
9.72	2.71402
9.73	2.74658
9.74	2.7729
9.75	2.79428
9.76	2.75974
9.77	2.77356
9.78	2.74724
9.79	2.77586
9.8	2.78441
9.81	2.76665
9.82	2.78113
9.83	2.7956
9.84	2.75974
9.85	2.77422
9.86	2.77027
9.87	2.74362
9.88	2.73704
9.89	2.73737
9.9	2.72882
9.91	2.75876
9.92	2.78376
9.93	2.7502
9.94	2.73014
9.95	2.7752
9.96	2.74264
9.97	2.75514
9.98	2.74494
9.99	2.73376
10	2.72652
10.01	2.73178
10.02	2.74461
10.03	2.73968
10.04	2.7729
10.05	2.76862
10.06	2.7729
10.07	2.79363
10.08	2.79132
10.09	2.76632
10.1	2.7683
10.11	2.7831
10.12	2.78441
10.13	2.75974
10.14	2.76599
10.15	2.77751
10.16	2.75974
10.17	2.77718
10.18	2.75514
10.19	2.77126
10.2	2.76895
10.21	2.78343
10.22	2.7581
10.23	2.77027
10.24	2.76862
10.25	2.75283
10.26	2.75908
10.27	2.75349
10.28	2.77586
10.29	2.74527
10.3	2.73836
10.31	2.73507
10.32	2.76468
10.33	2.72882
10.34	2.75053
10.35	2.7729
10.36	2.7683
10.37	2.7502
10.38	2.73343
10.39	2.77093
10.4	2.75547
10.41	2.73639
10.42	2.7877
10.43	2.77422
10.44	2.76764
10.45	2.76336
10.46	2.74264
10.47	2.77784
10.48	2.76534
10.49	2.78178
10.5	2.75777
10.51	2.76698
10.52	2.74264
10.53	2.74494
10.54	2.73014
10.55	2.76797
10.56	2.74461
10.57	2.7331
10.58	2.75251
10.59	2.75777
10.6	2.74066
10.61	2.7275
10.62	2.74231
10.63	2.72125
10.64	2.76698
10.65	2.7729
10.66	2.77685
10.67	2.74593
10.68	2.76205
10.69	2.74066
10.7	2.76369
10.71	2.76237
10.72	2.76764
10.73	2.77981
10.74	2.77093
10.75	2.78014
10.76	2.80284
10.77	2.74494
10.78	2.74297
10.79	2.75448
10.8	2.7729
10.81	2.7877
10.82	2.75547
10.83	2.75053
10.84	2.73079
10.85	2.75382
10.86	2.75876
10.87	2.75382
10.88	2.73408
10.89	2.73079
10.9	2.75612
10.91	2.76501
10.92	2.75547
10.93	2.72783
10.94	2.75777
10.95	2.71204
10.96	2.70612
10.97	2.73968
10.98	2.75941
10.99	2.73836
11	2.73836
11.01	2.76895
11.02	2.79922
11.03	2.74132
11.04	2.73507
11.05	2.73277
11.06	2.76764
11.07	2.75283
11.08	2.73376
11.09	2.74494
11.1	2.76237
11.11	2.7729
11.12	2.7502
11.13	2.75283
11.14	2.76435
11.15	2.72619
11.16	2.74987
11.17	2.7502
11.18	2.7502
11.19	2.79264
11.2	2.79231
11.21	2.7729
11.22	2.75382
11.23	2.73737
11.24	2.79395
11.25	2.7752
11.26	2.75744
11.27	2.73902
11.28	2.74494
11.29	2.78178
11.3	2.74461
11.31	2.78178
11.32	2.76566
11.33	2.75514
11.34	2.7752
11.35	2.76139
11.36	2.74198
11.37	2.72718
11.38	2.73474
11.39	2.72816
11.4	2.72093
11.41	2.75283
11.42	2.74593
11.43	2.73474
11.44	2.72257
11.45	2.76566
11.46	2.76797
11.47	2.77027
11.48	2.75843
11.49	2.71106
11.5	2.72981
11.51	2.76534
11.52	2.75283
11.53	2.75119
11.54	2.74889
11.55	2.74329
11.56	2.74066
11.57	2.71533
11.58	2.74329
11.59	2.78211
11.6	2.75448
11.61	2.73014
11.62	2.75185
11.63	2.7627
11.64	2.76468
11.65	2.78211
11.66	2.74757
11.67	2.74001
11.68	2.76402
11.69	2.75218
11.7	2.71007
11.71	2.75678
11.72	2.73606
11.73	2.75382
11.74	2.74494
11.75	2.74428
11.76	2.75053
11.77	2.75612
11.78	2.74955
11.79	2.75744
11.8	2.715
11.81	2.7456
11.82	2.74132
11.83	2.71533
11.84	2.73244
11.85	2.73573
11.86	2.74395
11.87	2.76961
11.88	2.79757
11.89	2.76073
11.9	2.76468
11.91	2.71797
11.92	2.75086
11.93	2.76435
11.94	2.75185
11.95	2.74658
11.96	2.73803
11.97	2.75316
11.98	2.75908
11.99	2.73935
12	2.74889
12.01	2.7627
12.02	2.75119
12.03	2.76073
12.04	2.69856
12.05	2.72816
12.06	2.74757
12.07	2.74461
12.08	2.73639
12.09	2.73869
12.1	2.78211
12.11	2.79922
12.12	2.78507
12.13	2.76468
12.14	2.71731
12.15	2.73704
12.16	2.75283
12.17	2.73047
12.18	2.74066
12.19	2.75086
12.2	2.77619
12.21	2.77224
12.22	2.73639
12.23	2.72816
12.24	2.74231
12.25	2.73408
12.26	2.74527
12.27	2.715
12.28	2.72882
12.29	2.75086
12.3	2.74856
12.31	2.76632
12.32	2.76106
12.33	2.75152
12.34	2.75974
12.35	2.76435
12.36	2.76468
12.37	2.76468
12.38	2.80218
12.39	2.76073
12.4	2.7581
12.41	2.76895
12.42	2.74033
12.43	2.73737
12.44	2.76731
12.45	2.76007
12.46	2.74231
12.47	2.77586
12.48	2.7752
12.49	2.75185
12.5	2.75514
12.51	2.74099
12.52	2.76665
12.53	2.76468
12.54	2.7558
12.55	2.74428
12.56	2.75185
12.57	2.7479
12.58	2.74297
12.59	2.7377
12.6	2.76534
12.61	2.74626
12.62	2.7558
12.63	2.75678
12.64	2.76698
12.65	2.77619
12.66	2.72586
12.67	2.71829
12.68	2.75941
12.69	2.75547
12.7	2.73935
12.71	2.75777
12.72	2.7627
12.73	2.74823
12.74	2.74987
12.75	2.73902
12.76	2.71533
12.77	2.7558
12.78	2.75744
12.79	2.72553
12.8	2.74264
12.81	2.73474
12.82	2.71961
12.83	2.76007
12.84	2.73014
12.85	2.73902
12.86	2.73573
12.87	2.78145
12.88	2.75645
12.89	2.76501
12.9	2.74362
12.91	2.73869
12.92	2.75316
12.93	2.72224
12.94	2.7331
12.95	2.76106
12.96	2.76369
12.97	2.73145
12.98	2.72718
12.99	2.73869
13	2.74955
13.01	2.72356
13.02	2.72619
13.03	2.74297
13.04	2.75481
13.05	2.76369
13.06	2.7581
13.07	2.75843
13.08	2.74658
13.09	2.76731
13.1	2.75349
13.11	2.75744
13.12	2.75941
13.13	2.76402
13.14	2.74165
13.15	2.73014
13.16	2.74297
13.17	2.73376
13.18	2.74922
13.19	2.73277
13.2	2.74889
13.21	2.75744
13.22	2.7604
13.23	2.74658
13.24	2.75514
13.25	2.71336
13.26	2.73606
13.27	2.71237
13.28	2.72125
13.29	2.74757
13.3	2.75185
13.31	2.78672
13.32	2.76961
13.33	2.75448
13.34	2.77652
13.35	2.79231
13.36	2.76764
13.37	2.72422
13.38	2.76468
13.39	2.7502
13.4	2.71303
13.41	2.74889
13.42	2.74955
13.43	2.75218
13.44	2.74099
13.45	2.73507
13.46	2.75448
13.47	2.75415
13.48	2.79264
13.49	2.75349
13.5	2.75547
13.51	2.76007
13.52	2.74658
13.53	2.73672
13.54	2.75283
13.55	2.77191
13.56	2.73178
13.57	2.75185
13.58	2.7354
13.59	2.76106
13.6	2.75218
13.61	2.76797
13.62	2.75547
13.63	2.75251
13.64	2.74987
13.65	2.76435
13.66	2.73178
13.67	2.73737
13.68	2.72783
13.69	2.76237
13.7	2.76698
13.71	2.75547
13.72	2.75316
13.73	2.72191
13.74	2.73737
13.75	2.70777
13.76	2.74691
13.77	2.73376
13.78	2.75218
13.79	2.73014
13.8	2.75711
13.81	2.75316
13.82	2.74001
13.83	2.71961
13.84	2.72422
13.85	2.74823
13.86	2.73079
13.87	2.73672
13.88	2.73672
13.89	2.7206
13.9	2.76764
13.91	2.74724
13.92	2.72389
13.93	2.73211
13.94	2.7252
13.95	2.7354
13.96	2.74362
13.97	2.75349
13.98	2.74856
13.99	2.74922
14	2.74593
14.01	2.73803
14.02	2.72027
14.03	2.73047
14.04	2.70678
14.05	2.71829
14.06	2.75283
14.07	2.7502
14.08	2.7354
14.09	2.74297
14.1	2.76336
14.11	2.76534
14.12	2.73968
14.13	2.72849
14.14	2.75119
14.15	2.7558
14.16	2.75876
14.17	2.75514
14.18	2.7252
14.19	2.7604
14.2	2.75514
14.21	2.75678
14.22	2.76106
14.23	2.7377
14.24	2.71764
14.25	2.71171
14.26	2.71895
14.27	2.7558
14.28	2.75316
14.29	2.74033
14.3	2.73704
14.31	2.71204
14.32	2.75086
14.33	2.77751
14.34	2.74856
14.35	2.70777
14.36	2.71204
14.37	2.74922
14.38	2.76698
14.39	2.74856
14.4	2.73277
14.41	2.73573
14.42	2.74231
14.43	2.76303
14.44	2.73244
14.45	2.73968
14.46	2.76764
14.47	2.74198
14.48	2.73014
14.49	2.74724
14.5	2.76139
14.51	2.74658
14.52	2.74329
14.53	2.74626
14.54	2.76336
14.55	2.73047
14.56	2.7252
14.57	2.75283
14.58	2.74658
14.59	2.75843
14.6	2.74856
14.61	2.72849
14.62	2.73606
14.63	2.76435
14.64	2.74494
14.65	2.73474
14.66	2.73474
14.67	2.73869
14.68	2.7831
14.69	2.7558
14.7	2.74033
14.71	2.74132
14.72	2.75053
14.73	2.7558
14.74	2.72487
14.75	2.73408
14.76	2.75316
14.77	2.75053
14.78	2.73507
14.79	2.7127
14.8	2.72422
14.81	2.7229
14.82	2.76632
14.83	2.73935
14.84	2.72816
14.85	2.74264
14.86	2.72915
14.87	2.73902
14.88	2.76073
14.89	2.71829
14.9	2.75251
14.91	2.74264
14.92	2.73639
14.93	2.73343
14.94	2.74757
14.95	2.75251
14.96	2.74626
14.97	2.76139
14.98	2.71928
14.99	2.75514
15	2.7502
15.01	2.72422
15.02	2.74428
15.03	2.7331
15.04	2.77093
15.05	2.74691
15.06	2.75119
15.07	2.72948
15.08	2.75514
15.09	2.74395
15.1	2.76237
15.11	2.72356
15.12	2.73244
15.13	2.73639
15.14	2.73507
15.15	2.72093
15.16	2.70875
15.17	2.72948
15.18	2.75349
15.19	2.7252
15.2	2.73935
15.21	2.73737
15.22	2.71599
15.23	2.7377
15.24	2.73014
15.25	2.74066
15.26	2.74461
15.27	2.74593
15.28	2.74231
15.29	2.72882
15.3	2.74955
15.31	2.74626
15.32	2.72619
15.33	2.74001
15.34	2.72454
15.35	2.77126
15.36	2.75908
15.37	2.76139
15.38	2.74165
15.39	2.74264
15.4	2.75218
15.41	2.72619
15.42	2.72125
15.43	2.72981
15.44	2.72356
15.45	2.74362
15.46	2.73047
15.47	2.72619
15.48	2.73704
15.49	2.76501
15.5	2.74856
15.51	2.75711
15.52	2.75941
15.53	2.75415
15.54	2.73869
15.55	2.71632
15.56	2.73211
15.57	2.77487
15.58	2.77159
15.59	2.7252
15.6	2.74955
15.61	2.77257
15.62	2.76764
15.63	2.7502
15.64	2.74033
15.65	2.75283
15.66	2.76369
15.67	2.75152
15.68	2.70152
15.69	2.75547
15.7	2.74593
15.71	2.72849
15.72	2.72191
15.73	2.73737
15.74	2.74033
15.75	2.7558
15.76	2.74527
15.77	2.74165
15.78	2.74461
15.79	2.76599
15.8	2.72389
15.81	2.72948
15.82	2.73573
15.83	2.74395
15.84	2.74297
15.85	2.73047
15.86	2.71435
15.87	2.71862
15.88	2.74001
15.89	2.73737
15.9	2.74033
15.91	2.72882
15.92	2.72652
15.93	2.73803
15.94	2.75415
15.95	2.73474
15.96	2.73047
15.97	2.77619
15.98	2.73408
15.99	2.76928
16	2.75908
16.01	2.75547
16.02	2.72915
16.03	2.71632
16.04	2.74461
16.05	2.68671
16.06	2.72125
16.07	2.74757
16.08	2.76435
16.09	2.71369
16.1	2.7558
16.11	2.76797
16.12	2.72389
16.13	2.76303
16.14	2.73145
16.15	2.72685
16.16	2.75645
16.17	2.77784
16.18	2.74198
16.19	2.72816
16.2	2.73935
16.21	2.77882
16.22	2.75974
16.23	2.74264
16.24	2.73211
16.25	2.74198
16.26	2.71303
16.27	2.72783
16.28	2.78178
16.29	2.76303
16.3	2.74757
16.31	2.76566
16.32	2.74033
16.33	2.70514
16.34	2.73079
16.35	2.72981
16.36	2.74165
16.37	2.73672
16.38	2.74856
16.39	2.73441
16.4	2.74593
16.41	2.75251
16.42	2.73408
16.43	2.7581
16.44	2.72619
16.45	2.7275
16.46	2.76205
16.47	2.7354
16.48	2.7275
16.49	2.70119
16.5	2.7206
16.51	2.76139
16.52	2.73935
16.53	2.71369
16.54	2.72553
16.55	2.74395
16.56	2.73803
16.57	2.74724
16.58	2.77257
16.59	2.75316
16.6	2.70382
16.61	2.71402
16.62	2.75349
16.63	2.76303
16.64	2.72553
16.65	2.72158
16.66	2.73014
16.67	2.72356
16.68	2.73803
16.69	2.71862
16.7	2.72125
16.71	2.74428
16.72	2.76106
16.73	2.7479
16.74	2.73014
16.75	2.76139
16.76	2.74527
16.77	2.74593
16.78	2.76073
16.79	2.73145
16.8	2.74987
16.81	2.74889
16.82	2.73935
16.83	2.72882
16.84	2.7558
16.85	2.74593
16.86	2.7479
16.87	2.75941
16.88	2.74165
16.89	2.72882
16.9	2.73211
16.91	2.77126
16.92	2.73672
16.93	2.75185
16.94	2.73704
16.95	2.75349
16.96	2.78211
16.97	2.74527
16.98	2.70119
16.99	2.73474
17	2.71435
17.01	2.74099
17.02	2.73836
17.03	2.74099
17.04	2.71566
17.05	2.73047
17.06	2.76994
17.07	2.74922
17.08	2.7275
17.09	2.71468
17.1	2.71895
17.11	2.73902
17.12	2.7377
17.13	2.73737
17.14	2.75744
17.15	2.74033
17.16	2.73178
17.17	2.70908
17.18	2.71994
17.19	2.75547
17.2	2.75316
17.21	2.75744
17.22	2.72718
17.23	2.7331
17.24	2.77159
17.25	2.74922
17.26	2.75908
17.27	2.73047
17.28	2.73343
17.29	2.75514
17.3	2.75974
17.31	2.73672
17.32	2.72981
17.33	2.71665
17.34	2.74297
17.35	2.74494
17.36	2.73408
17.37	2.72849
17.38	2.71731
17.39	2.7502
17.4	2.73211
17.41	2.7354
17.42	2.76336
17.43	2.7229
17.44	2.7206
17.45	2.75612
17.46	2.72718
17.47	2.73441
17.48	2.76862
17.49	2.74922
17.5	2.74033
17.51	2.72323
17.52	2.72027
17.53	2.72685
17.54	2.71106
17.55	2.70382
17.56	2.73244
17.57	2.72454
17.58	2.74066
17.59	2.72323
17.6	2.7558
17.61	2.73737
17.62	2.71468
17.63	2.7206
17.64	2.73836
17.65	2.74691
17.66	2.73408
17.67	2.75251
17.68	2.73376
17.69	2.73277
17.7	2.7354
17.71	2.74165
17.72	2.7558
17.73	2.7229
17.74	2.73672
17.75	2.71073
17.76	2.72685
17.77	2.68869
17.78	2.72389
17.79	2.75645
17.8	2.74428
17.81	2.74395
17.82	2.78672
17.83	2.74593
17.84	2.7331
17.85	2.72553
17.86	2.70974
17.87	2.69527
17.88	2.73935
17.89	2.71829
17.9	2.7479
17.91	2.74626
17.92	2.73441
17.93	2.7206
17.94	2.71171
17.95	2.71829
17.96	2.72882
17.97	2.7456
17.98	2.70481
17.99	2.69823
18	2.71139
18.01	2.71599
18.02	2.71764
18.03	2.71698
18.04	2.7558
18.05	2.73343
18.06	2.72027
18.07	2.72981
18.08	2.70908
18.09	2.70218
18.1	2.7104
18.11	2.72915
18.12	2.76862
18.13	2.74856
18.14	2.75843
18.15	2.7229
18.16	2.74329
18.17	2.73672
18.18	2.72487
18.19	2.73836
18.2	2.74593
18.21	2.73376
18.22	2.74362
18.23	2.75382
18.24	2.74231
18.25	2.74001
18.26	2.74264
18.27	2.72685
18.28	2.72849
18.29	2.74494
18.3	2.70218
18.31	2.70415
18.32	2.73277
18.33	2.73376
18.34	2.71237
18.35	2.72389
18.36	2.75974
18.37	2.74001
18.38	2.73244
18.39	2.72257
18.4	2.72553
18.41	2.76566
18.42	2.77718
18.43	2.76007
18.44	2.72323
18.45	2.73079
18.46	2.73145
18.47	2.73869
18.48	2.73408
18.49	2.75218
18.5	2.70612
18.51	2.72323
18.52	2.73211
18.53	2.7275
18.54	2.72619
18.55	2.72224
18.56	2.72224
18.57	2.74001
18.58	2.75316
18.59	2.72981
18.6	2.72652
18.61	2.72652
18.62	2.72224
18.63	2.69592
18.64	2.73968
18.65	2.7025
18.66	2.70349
18.67	2.72816
18.68	2.73803
18.69	2.72619
18.7	2.73408
18.71	2.71928
18.72	2.71994
18.73	2.72882
18.74	2.76599
18.75	2.70415
18.76	2.72158
18.77	2.71665
18.78	2.74395
18.79	2.70382
18.8	2.70546
18.81	2.70448
18.82	2.72619
18.83	2.72718
18.84	2.74264
18.85	2.75744
18.86	2.71797
18.87	2.71204
18.88	2.70481
18.89	2.72389
18.9	2.73507
18.91	2.715
18.92	2.73014
18.93	2.7354
18.94	2.72882
18.95	2.75119
18.96	2.75152
18.97	2.74066
18.98	2.70941
18.99	2.75843
19	2.73112
19.01	2.71994
19.02	2.7354
19.03	2.71237
19.04	2.74329
19.05	2.71632
19.06	2.70283
19.07	2.75876
19.08	2.76237
19.09	2.7502
19.1	2.74922
19.11	2.72553
19.12	2.75283
19.13	2.75152
19.14	2.75185
19.15	2.74165
19.16	2.73803
19.17	2.78803
19.18	2.74724
19.19	2.73244
19.2	2.71994
19.21	2.7229
19.22	2.71764
19.23	2.72487
19.24	2.76205
19.25	2.7479
19.26	2.73178
19.27	2.71797
19.28	2.71862
19.29	2.71797
19.3	2.75185
19.31	2.75218
19.32	2.77882
19.33	2.77882
19.34	2.73014
19.35	2.7252
19.36	2.75941
19.37	2.72125
19.38	2.76402
19.39	2.71336
19.4	2.68013
19.41	2.7377
19.42	2.73474
19.43	2.72915
19.44	2.73244
19.45	2.74461
19.46	2.75843
19.47	2.75481
19.48	2.75251
19.49	2.74626
19.5	2.72586
19.51	2.74395
19.52	2.74099
19.53	2.74922
19.54	2.74329
19.55	2.73047
19.56	2.71862
19.57	2.73573
19.58	2.75251
19.59	2.70711
19.6	2.73014
19.61	2.72849
19.62	2.71402
19.63	2.71139
19.64	2.76172
19.65	2.73869
19.66	2.7081
19.67	2.73408
19.68	2.75744
19.69	2.73408
19.7	2.73836
19.71	2.73704
19.72	2.72915
19.73	2.74033
19.74	2.74626
19.75	2.69691
19.76	2.74593
19.77	2.76566
19.78	2.71007
19.79	2.72125
19.8	2.74494
19.81	2.73704
19.82	2.74691
19.83	2.74033
19.84	2.71829
19.85	2.73408
19.86	2.73343
19.87	2.73178
19.88	2.7377
19.89	2.73343
19.9	2.72487
19.91	2.71468
19.92	2.71731
19.93	2.71566
19.94	2.72224
19.95	2.73211
19.96	2.7627
19.97	2.74395
19.98	2.71994
19.99	2.70579
20	2.73441
20.01	2.70974
20.02	2.72027
20.03	2.7581
20.04	2.7502
20.05	2.73047
20.06	2.77126
20.07	2.7456
20.08	2.70875
20.09	2.73047
20.1	2.73869
20.11	2.70974
20.12	2.72323
20.13	2.75382
20.14	2.75547
20.15	2.72849
20.16	2.74626
20.17	2.74066
20.18	2.73672
20.19	2.73047
20.2	2.74329
20.21	2.73803
20.22	2.74658
20.23	2.73606
20.24	2.74461
20.25	2.70579
20.26	2.72915
20.27	2.76139
20.28	2.7729
20.29	2.73112
20.3	2.71829
20.31	2.70777
20.32	2.72323
20.33	2.72553
20.34	2.73343
20.35	2.70908
20.36	2.71007
20.37	2.71402
20.38	2.70448
20.39	2.74955
20.4	2.76172
20.41	2.74198
20.42	2.72323
20.43	2.73145
20.44	2.72586
20.45	2.75382
20.46	2.73606
20.47	2.7752
20.48	2.74165
20.49	2.71106
20.5	2.69691
20.51	2.72356
20.52	2.7581
20.53	2.75974
20.54	2.73803
20.55	2.76435
20.56	2.72849
20.57	2.69
20.58	2.6831
20.59	2.73474
20.6	2.75283
20.61	2.73902
20.62	2.76895
20.63	2.7581
20.64	2.73507
20.65	2.72191
20.66	2.73639
20.67	2.75744
20.68	2.73441
20.69	2.74691
20.7	2.77126
20.71	2.71566
20.72	2.7331
20.73	2.7558
20.74	2.7229
20.75	2.73803
20.76	2.73079
20.77	2.7502
20.78	2.7581
20.79	2.74987
20.8	2.76336
20.81	2.69461
20.82	2.71566
20.83	2.72783
20.84	2.7252
20.85	2.70974
20.86	2.73178
20.87	2.71237
20.88	2.7331
20.89	2.72487
20.9	2.72915
20.91	2.75349
20.92	2.70579
20.93	2.73737
20.94	2.73145
20.95	2.73441
20.96	2.73573
20.97	2.7275
20.98	2.72224
20.99	2.72389
21	2.74527
21.01	2.75382
21.02	2.7706
21.03	2.71632
21.04	2.70612
21.05	2.71862
21.06	2.74198
21.07	2.74099
21.08	2.72224
21.09	2.72915
21.1	2.70546
21.11	2.69428
21.12	2.74264
21.13	2.77586
21.14	2.74362
21.15	2.76303
21.16	2.69724
21.17	2.73145
21.18	2.7229
21.19	2.72356
21.2	2.71632
21.21	2.73079
21.22	2.71928
21.23	2.72487
21.24	2.73408
21.25	2.72981
21.26	2.74922
21.27	2.7252
21.28	2.73968
21.29	2.75547
21.3	2.71994
21.31	2.73112
21.32	2.72685
21.33	2.72553
21.34	2.73573
21.35	2.73935
21.36	2.74955
21.37	2.73178
21.38	2.7206
21.39	2.74658
21.4	2.75316
21.41	2.76007
21.42	2.77816
21.43	2.74889
21.44	2.75843
21.45	2.76007
21.46	2.73704
21.47	2.73145
21.48	2.74132
21.49	2.74198
21.5	2.71007
21.51	2.73869
21.52	2.74395
21.53	2.75547
21.54	2.74066
21.55	2.715
21.56	2.72224
21.57	2.75645
21.58	2.74264
21.59	2.75218
21.6	2.76205
21.61	2.75777
21.62	2.73474
21.63	2.7331
21.64	2.74889
21.65	2.73836
21.66	2.74527
21.67	2.73244
21.68	2.73178
21.69	2.71632
21.7	2.73935
21.71	2.73112
21.72	2.71336
21.73	2.72093
21.74	2.68474
21.75	2.73836
21.76	2.75974
21.77	2.71369
21.78	2.71665
21.79	2.73145
21.8	2.73343
21.81	2.73737
21.82	2.74691
21.83	2.73474
21.84	2.70875
21.85	2.73178
21.86	2.73573
21.87	2.71665
21.88	2.72093
21.89	2.72586
21.9	2.71171
21.91	2.71566
21.92	2.72652
21.93	2.72454
21.94	2.69724
21.95	2.72224
21.96	2.71665
21.97	2.72454
21.98	2.74955
21.99	2.72619
22	2.71862
22.01	2.72619
22.02	2.71402
22.03	2.71468
22.04	2.70843
22.05	2.71402
22.06	2.73211
22.07	2.72487
22.08	2.71599
22.09	2.72849
22.1	2.75283
22.11	2.7502
22.12	2.72718
22.13	2.7354
22.14	2.7229
22.15	2.70645
22.16	2.71829
22.17	2.71303
22.18	2.71632
22.19	2.70546
22.2	2.73343
22.21	2.73277
22.22	2.73343
22.23	2.70316
22.24	2.71336
22.25	2.73968
22.26	2.72323
22.27	2.7581
22.28	2.77389
22.29	2.72948
22.3	2.73704
22.31	2.68639
22.32	2.74395
22.33	2.72257
22.34	2.73704
22.35	2.70777
22.36	2.72783
22.37	2.71237
22.38	2.72981
22.39	2.74231
22.4	2.72882
22.41	2.73343
22.42	2.72224
22.43	2.70974
22.44	2.71171
22.45	2.74033
22.46	2.78573
22.47	2.75744
22.48	2.72685
22.49	2.73079
22.5	2.73145
22.51	2.75349
22.52	2.7331
22.53	2.72027
22.54	2.74724
22.55	2.75316
22.56	2.72191
22.57	2.73277
22.58	2.70777
22.59	2.71468
22.6	2.70152
22.61	2.7127
22.62	2.7206
22.63	2.70711
22.64	2.74297
22.65	2.72783
22.66	2.69395
22.67	2.69987
22.68	2.72093
22.69	2.70941
22.7	2.71764
22.71	2.71928
22.72	2.72718
22.73	2.70349
22.74	2.68342
22.75	2.70053
22.76	2.7331
22.77	2.75415
22.78	2.74297
22.79	2.74955
22.8	2.74033
22.81	2.71171
22.82	2.72948
22.83	2.72553
22.84	2.73178
22.85	2.73573
22.86	2.73968
22.87	2.72553
22.88	2.715
22.89	2.7127
22.9	2.73968
22.91	2.72619
22.92	2.73047
22.93	2.72553
22.94	2.71928
22.95	2.70514
22.96	2.71895
22.97	2.72323
22.98	2.71928
22.99	2.71698
23	2.72685
23.01	2.71566
23.02	2.70185
23.03	2.7025
23.04	2.72816
23.05	2.76336
23.06	2.73869
23.07	2.73178
23.08	2.73112
23.09	2.7275
23.1	2.69889
23.11	2.71204
23.12	2.71435
23.13	2.72191
23.14	2.72191
23.15	2.70843
23.16	2.72454
23.17	2.75843
23.18	2.73968
23.19	2.73047
23.2	2.67454
23.21	2.69757
23.22	2.73935
23.23	2.7502
23.24	2.73376
23.25	2.71829
23.26	2.69823
23.27	2.7252
23.28	2.73408
23.29	2.72356
23.3	2.7275
23.31	2.72454
23.32	2.70218
23.33	2.75908
23.34	2.72816
23.35	2.74231
23.36	2.75119
23.37	2.74527
23.38	2.73474
23.39	2.71204
23.4	2.74297
23.41	2.71369
23.42	2.71139
23.43	2.71237
23.44	2.7081
23.45	2.70645
23.46	2.71961
23.47	2.71961
23.48	2.69987
23.49	2.69625
23.5	2.72553
23.51	2.75678
23.52	2.76797
23.53	2.72948
23.54	2.71171
23.55	2.71435
23.56	2.73112
23.57	2.69461
23.58	2.70941
23.59	2.70875
23.6	2.75119
23.61	2.75448
23.62	2.7127
23.63	2.71171
23.64	2.7479
23.65	2.74527
23.66	2.74001
23.67	2.72191
23.68	2.69
23.69	2.70119
23.7	2.72849
23.71	2.71797
23.72	2.70678
23.73	2.70843
23.74	2.69132
23.75	2.71731
23.76	2.7331
23.77	2.72783
23.78	2.72125
23.79	2.70678
23.8	2.70448
23.81	2.70941
23.82	2.71139
23.83	2.7206
23.84	2.72849
23.85	2.71731
23.86	2.74066
23.87	2.70053
23.88	2.73112
23.89	2.71139
23.9	2.69691
23.91	2.71994
23.92	2.71764
23.93	2.73606
23.94	2.76501
23.95	2.74428
23.96	2.72257
23.97	2.74165
23.98	2.74001
23.99	2.77027
24	2.74132
24.01	2.71731
24.02	2.72027
24.03	2.70744
24.04	2.74428
24.05	2.74198
24.06	2.74428
24.07	2.74856
24.08	2.71829
24.09	2.72422
24.1	2.73672
24.11	2.72816
24.12	2.69921
24.13	2.71764
24.14	2.72158
24.15	2.75316
24.16	2.71073
24.17	2.74428
24.18	2.75283
24.19	2.70908
24.2	2.70086
24.21	2.72915
24.22	2.72257
24.23	2.72586
24.24	2.7456
24.25	2.72783
24.26	2.71237
24.27	2.73474
24.28	2.73869
24.29	2.73211
24.3	2.75415
24.31	2.69
24.32	2.73047
24.33	2.72685
24.34	2.72948
24.35	2.74593
24.36	2.74593
24.37	2.7331
24.38	2.72685
24.39	2.7581
24.4	2.70546
24.41	2.71731
24.42	2.75843
24.43	2.73211
24.44	2.715
24.45	2.72224
24.46	2.71764
24.47	2.70053
24.48	2.73112
24.49	2.71829
24.5	2.72454
24.51	2.73079
24.52	2.73014
24.53	2.73211
24.54	2.71106
24.55	2.73376
24.56	2.74922
24.57	2.73178
24.58	2.73376
24.59	2.69823
24.6	2.71402
24.61	2.73047
24.62	2.72125
24.63	2.73639
24.64	2.74198
24.65	2.74658
24.66	2.72849
24.67	2.72356
24.68	2.69987
24.69	2.71533
24.7	2.71566
24.71	2.74297
24.72	2.72652
24.73	2.72948
24.74	2.70744
24.75	2.68967
24.76	2.69954
24.77	2.74724
24.78	2.70645
24.79	2.72948
24.8	2.72882
24.81	2.70908
24.82	2.73112
24.83	2.71533
24.84	2.72553
24.85	2.72389
24.86	2.71171
24.87	2.76369
24.88	2.73869
24.89	2.74198
24.9	2.73474
24.91	2.73211
24.92	2.72915
24.93	2.73704
24.94	2.7229
24.95	2.72553
24.96	2.71599
24.97	2.73277
24.98	2.73408
24.99	2.72783
25	2.73606
25.01	2.73343
25.02	2.74691
25.03	2.74395
25.04	2.70843
25.05	2.72718
25.06	2.74428
25.07	2.72191
25.08	2.7331
25.09	2.74823
25.1	2.76468
25.11	2.70875
25.12	2.73112
25.13	2.73573
25.14	2.70514
25.15	2.70415
25.16	2.71139
25.17	2.72619
25.18	2.72948
25.19	2.70119
25.2	2.69494
25.21	2.71829
25.22	2.72981
25.23	2.71994
25.24	2.72027
25.25	2.72191
25.26	2.68606
25.27	2.70645
25.28	2.71632
25.29	2.7502
25.3	2.71171
25.31	2.70843
25.32	2.70514
25.33	2.73408
25.34	2.74428
25.35	2.73047
25.36	2.69527
25.37	2.71961
25.38	2.7229
25.39	2.69329
25.4	2.71797
25.41	2.70316
25.42	2.70382
25.43	2.72981
25.44	2.74395
25.45	2.74198
25.46	2.71862
25.47	2.71402
25.48	2.71632
25.49	2.71106
25.5	2.74001
25.51	2.68046
25.52	2.70415
25.53	2.72882
25.54	2.70744
25.55	2.71139
25.56	2.71171
25.57	2.70152
25.58	2.71007
25.59	2.73014
25.6	2.69132
25.61	2.72586
25.62	2.70678
25.63	2.72454
25.64	2.71139
25.65	2.72454
25.66	2.74889
25.67	2.68836
25.68	2.70382
25.69	2.70908
25.7	2.75481
25.71	2.75185
25.72	2.7275
25.73	2.72915
25.74	2.70612
25.75	2.70777
25.76	2.74955
25.77	2.7252
25.78	2.72915
25.79	2.71731
25.8	2.70119
25.81	2.73836
25.82	2.73803
25.83	2.72685
25.84	2.73178
25.85	2.72915
25.86	2.72652
25.87	2.75448
25.88	2.72356
25.89	2.73112
25.9	2.70777
25.91	2.74033
25.92	2.72619
25.93	2.71829
25.94	2.70415
25.95	2.69428
25.96	2.72389
25.97	2.71007
25.98	2.7127
25.99	2.70053
26	2.7252
26.01	2.73507
26.02	2.75185
26.03	2.73573
26.04	2.70053
26.05	2.73441
26.06	2.7604
26.07	2.74362
26.08	2.73836
26.09	2.70053
26.1	2.73376
26.11	2.73474
26.12	2.72487
26.13	2.70514
26.14	2.71895
26.15	2.70711
26.16	2.7206
26.17	2.7456
26.18	2.73836
26.19	2.71204
26.2	2.71961
26.21	2.71237
26.22	2.71106
26.23	2.70481
26.24	2.7331
26.25	2.73047
26.26	2.74033
26.27	2.71599
26.28	2.72356
26.29	2.72816
26.3	2.72125
26.31	2.71468
26.32	2.71665
26.33	2.74066
26.34	2.75908
26.35	2.70152
26.36	2.71797
26.37	2.73112
26.38	2.70941
26.39	2.70218
26.4	2.71895
26.41	2.74428
26.42	2.70974
26.43	2.72915
26.44	2.7229
26.45	2.72158
26.46	2.75645
26.47	2.73704
26.48	2.7331
26.49	2.76435
26.5	2.76698
26.51	2.75941
26.52	2.72125
26.53	2.72915
26.54	2.72882
26.55	2.71402
26.56	2.71698
26.57	2.72553
26.58	2.73079
26.59	2.73474
26.6	2.71468
26.61	2.70349
26.62	2.74099
26.63	2.69658
26.64	2.72454
26.65	2.73211
26.66	2.74395
26.67	2.73639
26.68	2.72816
26.69	2.73935
26.7	2.7229
26.71	2.73047
26.72	2.74001
26.73	2.73968
26.74	2.73145
26.75	2.71073
26.76	2.72718
26.77	2.74987
26.78	2.73014
26.79	2.74461
26.8	2.73047
26.81	2.73376
26.82	2.71764
26.83	2.71369
26.84	2.72027
26.85	2.7025
26.86	2.73376
26.87	2.73343
26.88	2.72027
26.89	2.69889
26.9	2.7081
26.91	2.71665
26.92	2.76172
26.93	2.6979
26.94	2.70382
26.95	2.70119
26.96	2.73178
26.97	2.74033
26.98	2.73704
26.99	2.75349
27	2.73639
27.01	2.74658
27.02	2.73507
27.03	2.7104
27.04	2.70843
27.05	2.73573
27.06	2.73408
27.07	2.72422
27.08	2.72224
27.09	2.74395
27.1	2.7581
27.11	2.73244
27.12	2.73606
27.13	2.72849
27.14	2.71665
27.15	2.71731
27.16	2.71073
27.17	2.71435
27.18	2.72849
27.19	2.70875
27.2	2.73047
27.21	2.73573
27.22	2.72389
27.23	2.69856
27.24	2.7002
27.25	2.73968
27.26	2.77159
27.27	2.7275
27.28	2.72093
27.29	2.74658
27.3	2.7229
27.31	2.73672
27.32	2.71698
27.33	2.70086
27.34	2.74527
27.35	2.76303
27.36	2.71862
27.37	2.71961
27.38	2.73902
27.39	2.74395
27.4	2.70283
27.41	2.74264
27.42	2.73244
27.43	2.74165
27.44	2.74856
27.45	2.74099
27.46	2.74593
27.47	2.72816
27.48	2.73343
27.49	2.72816
27.5	2.74987
27.51	2.74691
27.52	2.74001
27.53	2.70678
27.54	2.72093
27.55	2.69757
27.56	2.70612
27.57	2.71764
27.58	2.74922
27.59	2.73343
27.6	2.72718
27.61	2.71764
27.62	2.7229
27.63	2.72619
27.64	2.71797
27.65	2.70974
27.66	2.72323
27.67	2.7127
27.68	2.71764
27.69	2.70678
27.7	2.70777
27.71	2.71862
27.72	2.73376
27.73	2.72981
27.74	2.72783
27.75	2.72915
27.76	2.74724
27.77	2.7479
27.78	2.72257
27.79	2.69264
27.8	2.70678
27.81	2.74264
27.82	2.72224
27.83	2.6854
27.84	2.74132
27.85	2.72454
27.86	2.71665
27.87	2.7275
27.88	2.71435
27.89	2.74395
27.9	2.7377
27.91	2.71139
27.92	2.74165
27.93	2.72849
27.94	2.74001
27.95	2.72257
27.96	2.71895
27.97	2.73277
27.98	2.72257
27.99	2.74099
28	2.72652
28.01	2.72783
28.02	2.74264
28.03	2.7002
28.04	2.68507
28.05	2.72422
28.06	2.72093
28.07	2.70612
28.08	2.71764
28.09	2.72191
28.1	2.7081
28.11	2.71632
28.12	2.715
28.13	2.69724
28.14	2.73244
28.15	2.73211
28.16	2.71895
28.17	2.71731
28.18	2.72619
28.19	2.73606
28.2	2.68967
28.21	2.69658
28.22	2.72586
28.23	2.73014
28.24	2.73737
28.25	2.74527
28.26	2.74033
28.27	2.73244
28.28	2.72257
28.29	2.73376
28.3	2.71369
28.31	2.69132
28.32	2.75547
28.33	2.70053
28.34	2.70119
28.35	2.7025
28.36	2.73836
28.37	2.71764
28.38	2.72323
28.39	2.75941
28.4	2.73178
28.41	2.70514
28.42	2.72158
28.43	2.74626
28.44	2.73902
28.45	2.71073
28.46	2.72882
28.47	2.72948
28.48	2.72816
28.49	2.70283
28.5	2.7002
28.51	2.71731
28.52	2.72356
28.53	2.72191
28.54	2.69691
28.55	2.71237
28.56	2.6979
28.57	2.70843
28.58	2.70283
28.59	2.71895
28.6	2.70678
28.61	2.71073
28.62	2.67619
28.63	2.6979
28.64	2.71994
28.65	2.71928
28.66	2.70119
28.67	2.71237
28.68	2.72224
28.69	2.71566
28.7	2.73079
28.71	2.72487
28.72	2.70974
28.73	2.70283
28.74	2.68342
28.75	2.69625
28.76	2.66138
28.77	2.70974
28.78	2.74001
28.79	2.72487
28.8	2.67619
28.81	2.71435
28.82	2.75053
28.83	2.74132
28.84	2.71961
28.85	2.70316
28.86	2.72224
28.87	2.72487
28.88	2.71171
28.89	2.73441
28.9	2.7252
28.91	2.72389
28.92	2.71007
28.93	2.73704
28.94	2.73507
28.95	2.7229
28.96	2.70448
28.97	2.72224
28.98	2.71402
28.99	2.7104
29	2.73803
29.01	2.73145
29.02	2.72191
29.03	2.70974
29.04	2.73737
29.05	2.69592
29.06	2.72718
29.07	2.71731
29.08	2.71731
29.09	2.72389
29.1	2.72948
29.11	2.74198
29.12	2.70053
29.13	2.71533
29.14	2.72586
29.15	2.72849
29.16	2.72454
29.17	2.70448
29.18	2.72158
29.19	2.71862
29.2	2.72257
29.21	2.74165
29.22	2.70382
29.23	2.70744
29.24	2.73376
29.25	2.72685
29.26	2.73935
29.27	2.72389
29.28	2.72816
29.29	2.70612
29.3	2.73935
29.31	2.72323
29.32	2.72619
29.33	2.74461
29.34	2.74329
29.35	2.73211
29.36	2.7104
29.37	2.72553
29.38	2.72224
29.39	2.71961
29.4	2.70218
29.41	2.7002
29.42	2.70908
29.43	2.72389
29.44	2.72323
29.45	2.71468
29.46	2.73047
29.47	2.72816
29.48	2.67685
29.49	2.71435
29.5	2.7377
29.51	2.715
29.52	2.70908
29.53	2.7127
29.54	2.72718
29.55	2.73639
29.56	2.74165
29.57	2.71632
29.58	2.68178
29.59	2.74001
29.6	2.75876
29.61	2.72389
29.62	2.71895
29.63	2.71171
29.64	2.71533
29.65	2.7025
29.66	2.7275
29.67	2.69264
29.68	2.70744
29.69	2.69889
29.7	2.71204
29.71	2.73112
29.72	2.73441
29.73	2.73244
29.74	2.72685
29.75	2.72257
29.76	2.6956
29.77	2.67487
29.78	2.71764
29.79	2.7229
29.8	2.72783
29.81	2.74527
29.82	2.73112
29.83	2.69231
29.84	2.71073
29.85	2.72915
29.86	2.72915
29.87	2.72422
29.88	2.7604
29.89	2.71369
29.9	2.72783
29.91	2.70744
29.92	2.70678
29.93	2.74395
29.94	2.71204
29.95	2.74724
29.96	2.73573
29.97	2.73672
29.98	2.7252
29.99	2.70645
30	2.72718
30.01	2.72553
30.02	2.69033
30.03	2.68869
30.04	2.70579
30.05	2.72915
30.06	2.71994
30.07	2.71336
30.08	2.73441
30.09	2.71862
30.1	2.72882
30.11	2.74757
30.12	2.71665
30.13	2.72356
30.14	2.71468
30.15	2.68869
30.16	2.70645
30.17	2.74658
30.18	2.73145
30.19	2.73178
30.2	2.75316
30.21	2.73672
30.22	2.72323
30.23	2.73507
30.24	2.7275
30.25	2.72158
30.26	2.71862
30.27	2.69921
30.28	2.71698
30.29	2.73112
30.3	2.74724
30.31	2.72422
30.32	2.70349
30.33	2.71994
30.34	2.7229
30.35	2.7206
30.36	2.69231
30.37	2.7025
30.38	2.72586
30.39	2.73968
30.4	2.71764
30.41	2.69165
30.42	2.70448
30.43	2.71369
30.44	2.71402
30.45	2.74231
30.46	2.73079
30.47	2.75152
30.48	2.74757
30.49	2.7456
30.5	2.73902
30.51	2.71928
30.52	2.74066
30.53	2.74757
30.54	2.72981
30.55	2.71468
30.56	2.71073
30.57	2.7081
30.58	2.73441
30.59	2.73474
30.6	2.70152
30.61	2.72224
30.62	2.71106
30.63	2.68902
30.64	2.73145
30.65	2.7206
30.66	2.71862
30.67	2.71797
30.68	2.70349
30.69	2.715
30.7	2.76205
30.71	2.71402
30.72	2.68671
30.73	2.6854
30.74	2.68704
30.75	2.71928
30.76	2.71961
30.77	2.71468
30.78	2.71402
30.79	2.72948
30.8	2.73869
30.81	2.7331
30.82	2.71435
30.83	2.69757
30.84	2.7206
30.85	2.72816
30.86	2.73573
30.87	2.72191
30.88	2.72553
30.89	2.70218
30.9	2.69757
30.91	2.70678
30.92	2.71468
30.93	2.74198
30.94	2.73408
30.95	2.71237
30.96	2.71632
30.97	2.70941
30.98	2.7252
30.99	2.70382
31	2.71632
31.01	2.72158
31.02	2.72224
31.03	2.7104
31.04	2.65711
31.05	2.665
31.06	2.69198
31.07	2.7127
31.08	2.7206
31.09	2.74658
31.1	2.71336
31.11	2.73902
31.12	2.74264
31.13	2.73441
31.14	2.71007
31.15	2.72125
31.16	2.70711
31.17	2.68803
31.18	2.74461
31.19	2.72915
31.2	2.73441
31.21	2.70974
31.22	2.71303
31.23	2.69724
31.24	2.70875
31.25	2.71895
31.26	2.71862
31.27	2.73178
31.28	2.73079
31.29	2.73474
31.3	2.71731
31.31	2.72323
31.32	2.72093
31.33	2.70875
31.34	2.68836
31.35	2.69724
31.36	2.72323
31.37	2.71599
31.38	2.7275
31.39	2.72027
31.4	2.7479
31.41	2.72224
31.42	2.69987
31.43	2.72981
31.44	2.70053
31.45	2.6775
31.46	2.71928
31.47	2.73178
31.48	2.71007
31.49	2.73672
31.5	2.71106
31.51	2.70974
31.52	2.74198
31.53	2.71435
31.54	2.72257
31.55	2.71007
31.56	2.72849
31.57	2.73441
31.58	2.72718
31.59	2.73244
31.6	2.74527
31.61	2.71468
31.62	2.73014
31.63	2.71895
31.64	2.74066
31.65	2.7081
31.66	2.69296
31.67	2.70546
31.68	2.69856
31.69	2.73014
31.7	2.73343
31.71	2.72948
31.72	2.76566
31.73	2.74198
31.74	2.71731
31.75	2.71928
31.76	2.71665
31.77	2.70843
31.78	2.69428
31.79	2.73112
31.8	2.70612
31.81	2.71566
31.82	2.69691
31.83	2.70645
31.84	2.72685
31.85	2.7275
31.86	2.69889
31.87	2.71171
31.88	2.73211
31.89	2.73507
31.9	2.75316
31.91	2.71599
31.92	2.72553
31.93	2.73145
31.94	2.73112
31.95	2.6956
31.96	2.6979
31.97	2.68967
31.98	2.70283
31.99	2.69954
32	2.73211
32.01	2.6979
32.02	2.7104
32.03	2.73145
32.04	2.72652
32.05	2.73935
32.06	2.73606
32.07	2.70645
32.08	2.72619
32.09	2.72257
32.1	2.71402
32.11	2.72915
32.12	2.70777
32.13	2.71698
32.14	2.76369
32.15	2.7081
32.16	2.71862
32.17	2.73672
32.18	2.73474
32.19	2.75119
32.2	2.74757
32.21	2.72027
32.22	2.715
32.23	2.72619
32.24	2.74165
32.25	2.72981
32.26	2.69691
32.27	2.75908
32.28	2.74329
32.29	2.70974
32.3	2.70053
32.31	2.72685
32.32	2.70448
32.33	2.70777
32.34	2.72849
32.35	2.72323
32.36	2.72981
32.37	2.72849
32.38	2.71994
32.39	2.72849
32.4	2.73639
32.41	2.75382
32.42	2.72718
32.43	2.69658
32.44	2.73408
32.45	2.72619
32.46	2.74165
32.47	2.71237
32.48	2.71665
32.49	2.72158
32.5	2.73474
32.51	2.71829
32.52	2.68737
32.53	2.71829
32.54	2.68704
32.55	2.68869
32.56	2.72158
32.57	2.72191
32.58	2.74593
32.59	2.6979
32.6	2.73606
32.61	2.73047
32.62	2.7604
32.63	2.70875
32.64	2.72981
32.65	2.73211
32.66	2.7275
32.67	2.74527
32.68	2.72586
32.69	2.72027
32.7	2.72553
32.71	2.72652
32.72	2.73704
32.73	2.72125
32.74	2.74593
32.75	2.69889
32.76	2.72125
32.77	2.73244
32.78	2.73474
32.79	2.7252
32.8	2.73047
32.81	2.75547
32.82	2.71764
32.83	2.72915
32.84	2.71566
32.85	2.69658
32.86	2.69
32.87	2.72553
32.88	2.76468
32.89	2.70316
32.9	2.70448
32.91	2.7229
32.92	2.71797
32.93	2.73672
32.94	2.75152
32.95	2.73408
32.96	2.71862
32.97	2.72619
32.98	2.70908
32.99	2.71369
33	2.72125
33.01	2.7002
33.02	2.72652
33.03	2.72553
33.04	2.7377
33.05	2.71895
33.06	2.68244
33.07	2.73869
33.08	2.73376
33.09	2.71336
33.1	2.70908
33.11	2.72882
33.12	2.74099
33.13	2.74132
33.14	2.71895
33.15	2.70744
33.16	2.70415
33.17	2.68046
33.18	2.70119
33.19	2.70974
33.2	2.70711
33.21	2.67685
33.22	2.70086
33.23	2.74527
33.24	2.75119
33.25	2.71895
33.26	2.69889
33.27	2.69954
33.28	2.69757
33.29	2.6979
33.3	2.68079
33.31	2.68441
33.32	2.73244
33.33	2.74165
33.34	2.71994
33.35	2.71073
33.36	2.7275
33.37	2.69625
33.38	2.69856
33.39	2.72356
33.4	2.71566
33.41	2.74395
33.42	2.69889
33.43	2.71303
33.44	2.69625
33.45	2.72224
33.46	2.76237
33.47	2.73014
33.48	2.70941
33.49	2.68967
33.5	2.69724
33.51	2.7127
33.52	2.72619
33.53	2.71171
33.54	2.71402
33.55	2.70415
33.56	2.70119
33.57	2.72487
33.58	2.69757
33.59	2.69592
33.6	2.73376
33.61	2.7081
33.62	2.71435
33.63	2.71171
33.64	2.71171
33.65	2.73145
33.66	2.74527
33.67	2.715
33.68	2.7354
33.69	2.70218
33.7	2.69428
33.71	2.71566
33.72	2.73704
33.73	2.7252
33.74	2.71566
33.75	2.68671
33.76	2.71336
33.77	2.75448
33.78	2.7683
33.79	2.76501
33.8	2.7331
33.81	2.75481
33.82	2.73639
33.83	2.71369
33.84	2.73836
33.85	2.68902
33.86	2.69691
33.87	2.71895
33.88	2.7275
33.89	2.72191
33.9	2.70481
33.91	2.71007
33.92	2.69066
33.93	2.72323
33.94	2.75514
33.95	2.73014
33.96	2.74297
33.97	2.72158
33.98	2.71402
33.99	2.72783
34	2.72718
34.01	2.7377
34.02	2.72685
34.03	2.7479
34.04	2.69889
34.05	2.73112
34.06	2.73112
34.07	2.73178
34.08	2.68046
34.09	2.7081
34.1	2.71106
34.11	2.72158
34.12	2.73211
34.13	2.73935
34.14	2.73474
34.15	2.74428
34.16	2.72027
34.17	2.71303
34.18	2.72323
34.19	2.72389
34.2	2.72257
34.21	2.68935
34.22	2.72323
34.23	2.70053
34.24	2.71303
34.25	2.74066
34.26	2.75974
34.27	2.70218
34.28	2.70382
34.29	2.70711
34.3	2.72718
34.31	2.73343
34.32	2.73376
34.33	2.7558
34.34	2.73079
34.35	2.7377
34.36	2.73014
34.37	2.74198
34.38	2.70152
34.39	2.75349
34.4	2.71533
34.41	2.71303
34.42	2.70941
34.43	2.71731
34.44	2.71895
34.45	2.70744
34.46	2.72125
34.47	2.72849
34.48	2.71171
34.49	2.67783
34.5	2.71533
34.51	2.7377
34.52	2.75053
34.53	2.7479
34.54	2.72027
34.55	2.68342
34.56	2.68902
34.57	2.70612
34.58	2.72816
34.59	2.73704
34.6	2.73869
34.61	2.7331
34.62	2.72191
34.63	2.71599
34.64	2.72027
34.65	2.70908
34.66	2.68408
34.67	2.73343
34.68	2.72718
34.69	2.72619
34.7	2.69592
34.71	2.71106
34.72	2.71468
34.73	2.71862
34.74	2.72816
34.75	2.69921
34.76	2.71237
34.77	2.7275
34.78	2.69099
34.79	2.72619
34.8	2.71862
34.81	2.71566
34.82	2.73277
34.83	2.70843
34.84	2.69165
34.85	2.70546
34.86	2.75941
34.87	2.73573
34.88	2.7377
34.89	2.70086
34.9	2.73145
34.91	2.7104
34.92	2.73639
34.93	2.6979
34.94	2.69099
34.95	2.7081
34.96	2.70415
34.97	2.73047
34.98	2.72422
34.99	2.74395
35	2.74362
35.01	2.73672
35.02	2.72257
35.03	2.71632
35.04	2.73014
35.05	2.72816
35.06	2.71632
35.07	2.71599
35.08	2.70579
35.09	2.71797
35.1	2.72027
35.11	2.70777
35.12	2.7331
35.13	2.71204
35.14	2.72093
35.15	2.7377
35.16	2.74626
35.17	2.70053
35.18	2.7081
35.19	2.74099
35.2	2.70119
35.21	2.73014
35.22	2.72981
35.23	2.7229
35.24	2.68803
35.25	2.72093
35.26	2.70514
35.27	2.74231
35.28	2.70218
35.29	2.68178
35.3	2.70678
35.31	2.71468
35.32	2.72915
35.33	2.74461
35.34	2.69494
35.35	2.71533
35.36	2.73507
35.37	2.7275
35.38	2.73376
35.39	2.70152
35.4	2.72652
35.41	2.74001
35.42	2.74165
35.43	2.69329
35.44	2.67125
35.45	2.69856
35.46	2.71336
35.47	2.70382
35.48	2.75941
35.49	2.72586
35.5	2.71237
35.51	2.71402
35.52	2.71599
35.53	2.71698
35.54	2.71895
35.55	2.7275
35.56	2.73573
35.57	2.73803
35.58	2.74494
35.59	2.72718
35.6	2.70283
35.61	2.70185
35.62	2.69198
35.63	2.72685
35.64	2.72783
35.65	2.70678
35.66	2.7081
35.67	2.72454
35.68	2.72454
35.69	2.71171
35.7	2.72915
35.71	2.69954
35.72	2.6956
35.73	2.72882
35.74	2.70283
35.75	2.74264
35.76	2.75415
35.77	2.70415
35.78	2.70514
35.79	2.70053
35.8	2.72783
35.81	2.68441
35.82	2.7104
35.83	2.73441
35.84	2.75843
35.85	2.72125
35.86	2.72389
35.87	2.72553
35.88	2.71468
35.89	2.7206
35.9	2.71237
35.91	2.71829
35.92	2.71698
35.93	2.72981
35.94	2.71237
35.95	2.70941
35.96	2.72257
35.97	2.75514
35.98	2.75941
35.99	2.72718
36	2.73079
36.01	2.74362
36.02	2.74297
36.03	2.74099
36.04	2.74001
36.05	2.70514
36.06	2.71171
36.07	2.7229
36.08	2.74264
36.09	2.75612
36.1	2.73244
36.11	2.7104
36.12	2.71139
36.13	2.71237
36.14	2.69592
36.15	2.71862
36.16	2.7104
36.17	2.73573
36.18	2.72191
36.19	2.69889
36.2	2.72816
36.21	2.73869
36.22	2.74297
36.23	2.71797
36.24	2.69461
36.25	2.69856
36.26	2.72849
36.27	2.71468
36.28	2.72224
36.29	2.75645
36.3	2.7206
36.31	2.71402
36.32	2.72027
36.33	2.72224
36.34	2.70316
36.35	2.715
36.36	2.69987
36.37	2.75086
36.38	2.72685
36.39	2.69066
36.4	2.71171
36.41	2.72882
36.42	2.70185
36.43	2.72783
36.44	2.72422
36.45	2.72849
36.46	2.73079
36.47	2.7081
36.48	2.70843
36.49	2.70185
36.5	2.75382
36.51	2.76402
36.52	2.74132
36.53	2.68869
36.54	2.70843
36.55	2.73507
36.56	2.69823
36.57	2.70908
36.58	2.70448
36.59	2.71073
36.6	2.75119
36.61	2.73474
36.62	2.74001
36.63	2.73408
36.64	2.72389
36.65	2.71106
36.66	2.71369
36.67	2.72652
36.68	2.73573
36.69	2.69724
36.7	2.70843
36.71	2.71073
36.72	2.69856
36.73	2.70283
36.74	2.73343
36.75	2.75086
36.76	2.74165
36.77	2.74395
36.78	2.73211
36.79	2.74165
36.8	2.72257
36.81	2.715
36.82	2.71204
36.83	2.70612
36.84	2.71698
36.85	2.70974
36.86	2.71007
36.87	2.72619
36.88	2.7081
36.89	2.73639
36.9	2.67717
36.91	2.69987
36.92	2.70843
36.93	2.70875
36.94	2.73606
36.95	2.71731
36.96	2.69823
36.97	2.7456
36.98	2.73408
36.99	2.7127
37	2.69494
37.01	2.7354
37.02	2.73244
37.03	2.71632
37.04	2.72882
37.05	2.71139
37.06	2.715
37.07	2.69198
37.08	2.72487
37.09	2.72093
37.1	2.71961
37.11	2.71632
37.12	2.69987
37.13	2.7025
37.14	2.72981
37.15	2.7275
37.16	2.74231
37.17	2.70185
37.18	2.71829
37.19	2.72586
37.2	2.70514
37.21	2.72027
37.22	2.71665
37.23	2.69856
37.24	2.69033
37.25	2.74362
37.26	2.68244
37.27	2.70382
37.28	2.70316
37.29	2.71797
37.3	2.70415
37.31	2.69889
37.32	2.72356
37.33	2.73277
37.34	2.70974
37.35	2.69362
37.36	2.71402
37.37	2.72948
37.38	2.72586
37.39	2.72356
37.4	2.71007
37.41	2.70185
37.42	2.75941
37.43	2.72323
37.44	2.70843
37.45	2.69428
37.46	2.74362
37.47	2.72422
37.48	2.7104
37.49	2.7025
37.5	2.73145
37.51	2.73441
37.52	2.67685
37.53	2.71961
37.54	2.72652
37.55	2.72685
37.56	2.7354
37.57	2.70152
37.58	2.68869
37.59	2.67092
37.6	2.72652
37.61	2.7456
37.62	2.72586
37.63	2.7331
37.64	2.73014
37.65	2.73803
37.66	2.71171
37.67	2.71994
37.68	2.71797
37.69	2.75382
37.7	2.7331
37.71	2.7104
37.72	2.70612
37.73	2.68935
37.74	2.73047
37.75	2.72191
37.76	2.7331
37.77	2.71007
37.78	2.73408
37.79	2.70546
37.8	2.7127
37.81	2.74264
37.82	2.74329
37.83	2.71468
37.84	2.68441
37.85	2.70678
37.86	2.72356
37.87	2.70744
37.88	2.73606
37.89	2.72981
37.9	2.7502
37.91	2.73704
37.92	2.73474
37.93	2.70974
37.94	2.72323
37.95	2.72882
37.96	2.70579
37.97	2.72125
37.98	2.70875
37.99	2.70645
38	2.71139
38.01	2.71994
38.02	2.72454
38.03	2.71336
38.04	2.69757
38.05	2.70645
38.06	2.70218
38.07	2.7127
38.08	2.71468
38.09	2.7127
38.1	2.73704
38.11	2.69954
38.12	2.70908
38.13	2.72915
38.14	2.71073
38.15	2.66895
38.16	2.68935
38.17	2.71073
38.18	2.75908
38.19	2.71928
38.2	2.6956
38.21	2.7025
38.22	2.75547
38.23	2.73869
38.24	2.71797
38.25	2.70843
38.26	2.70119
38.27	2.72027
38.28	2.72422
38.29	2.71994
38.3	2.71533
38.31	2.72389
38.32	2.72652
38.33	2.72158
38.34	2.69099
38.35	2.69
38.36	2.71171
38.37	2.72882
38.38	2.71895
38.39	2.70744
38.4	2.7002
38.41	2.72422
38.42	2.74099
38.43	2.75547
38.44	2.72224
38.45	2.72652
38.46	2.71862
38.47	2.73343
38.48	2.75382
38.49	2.74099
38.5	2.73474
38.51	2.72586
38.52	2.70514
38.53	2.71665
38.54	2.72948
38.55	2.7081
38.56	2.71994
38.57	2.70678
38.58	2.69889
38.59	2.7581
38.6	2.74132
38.61	2.70678
38.62	2.69921
38.63	2.72356
38.64	2.7558
38.65	2.70777
38.66	2.72685
38.67	2.70448
38.68	2.71237
38.69	2.73014
38.7	2.70744
38.71	2.73244
38.72	2.72849
38.73	2.71139
38.74	2.70974
38.75	2.72257
38.76	2.73244
38.77	2.73343
38.78	2.71961
38.79	2.74165
38.8	2.72816
38.81	2.71566
38.82	2.70349
38.83	2.71829
38.84	2.69856
38.85	2.73145
38.86	2.74001
38.87	2.70974
38.88	2.71599
38.89	2.70152
38.9	2.7104
38.91	2.72093
38.92	2.70645
38.93	2.71303
38.94	2.70119
38.95	2.72586
38.96	2.72553
38.97	2.70086
38.98	2.73968
38.99	2.71237
39	2.70119
39.01	2.72948
39.02	2.71204
39.03	2.75251
39.04	2.72158
39.05	2.65974
39.06	2.72125
39.07	2.72422
39.08	2.7127
39.09	2.69329
39.1	2.7127
39.11	2.70645
39.12	2.71007
39.13	2.70875
39.14	2.72093
39.15	2.71731
39.16	2.71665
39.17	2.71336
39.18	2.71303
39.19	2.73112
39.2	2.74001
39.21	2.74231
39.22	2.68836
39.23	2.71533
39.24	2.73606
39.25	2.72093
39.26	2.68967
39.27	2.70316
39.28	2.70283
39.29	2.74132
39.3	2.7479
39.31	2.70645
39.32	2.6956
39.33	2.71139
39.34	2.71237
39.35	2.7354
39.36	2.72356
39.37	2.70777
39.38	2.70711
39.39	2.7229
39.4	2.74066
39.41	2.73507
39.42	2.72948
39.43	2.70579
39.44	2.66763
39.45	2.70678
39.46	2.72882
39.47	2.73737
39.48	2.70185
39.49	2.69165
39.5	2.72093
39.51	2.69395
39.52	2.69362
39.53	2.70941
39.54	2.7002
39.55	2.69461
39.56	2.71402
39.57	2.73211
39.58	2.70579
39.59	2.75382
39.6	2.68441
39.61	2.6956
39.62	2.73836
39.63	2.70514
39.64	2.74724
39.65	2.72948
39.66	2.70481
39.67	2.72323
39.68	2.70645
39.69	2.72487
39.7	2.71369
39.71	2.69987
39.72	2.71369
39.73	2.7252
39.74	2.71895
39.75	2.75251
39.76	2.7479
39.77	2.72125
39.78	2.73376
39.79	2.71961
39.8	2.71895
39.81	2.73803
39.82	2.72718
39.83	2.70152
39.84	2.69494
39.85	2.72389
39.86	2.71895
39.87	2.72356
39.88	2.70349
39.89	2.69329
39.9	2.70514
39.91	2.71632
39.92	2.69592
39.93	2.71303
39.94	2.72783
39.95	2.70974
39.96	2.72586
39.97	2.72619
39.98	2.70448
39.99	2.71895
40	2.73836
40.01	2.67915
40.02	2.71533
40.03	2.70283
40.04	2.71665
40.05	2.69527
40.06	2.7002
40.07	2.7331
40.08	2.69362
40.09	2.70448
40.1	2.72158
40.11	2.71336
40.12	2.72783
40.13	2.70152
40.14	2.715
40.15	2.7206
40.16	2.71829
40.17	2.7206
40.18	2.69329
40.19	2.73014
40.2	2.69724
40.21	2.70974
40.22	2.71336
40.23	2.74033
40.24	2.71073
40.25	2.70481
40.26	2.71237
40.27	2.70448
40.28	2.69954
40.29	2.72125
40.3	2.74066
40.31	2.7252
40.32	2.70777
40.33	2.73343
40.34	2.72454
40.35	2.71139
40.36	2.72816
40.37	2.71797
40.38	2.73441
40.39	2.69329
40.4	2.69954
40.41	2.69889
40.42	2.70448
40.43	2.69625
40.44	2.72191
40.45	2.73047
40.46	2.66829
40.47	2.69987
40.48	2.72125
40.49	2.72685
40.5	2.71632
40.51	2.73803
40.52	2.74132
40.53	2.70612
40.54	2.67125
40.55	2.67981
40.56	2.69724
40.57	2.74297
40.58	2.75316
40.59	2.75843
40.6	2.70777
40.61	2.70777
40.62	2.70908
40.63	2.71435
40.64	2.69395
40.65	2.71862
40.66	2.70546
40.67	2.66862
40.68	2.65645
40.69	2.7002
40.7	2.70053
40.71	2.68869
40.72	2.72356
40.73	2.70645
40.74	2.73145
40.75	2.74297
40.76	2.69691
40.77	2.71204
40.78	2.73014
40.79	2.6752
40.8	2.72323
40.81	2.74691
40.82	2.72125
40.83	2.72718
40.84	2.70316
40.85	2.715
40.86	2.73902
40.87	2.73968
40.88	2.73573
40.89	2.73803
40.9	2.7229
40.91	2.6956
40.92	2.70908
40.93	2.73244
40.94	2.67981
40.95	2.70316
40.96	2.70382
40.97	2.73704
40.98	2.70086
40.99	2.69329
41	2.69165
41.01	2.69494
41.02	2.70875
41.03	2.67685
41.04	2.69987
41.05	2.7558
41.06	2.72027
41.07	2.71106
41.08	2.72619
41.09	2.70875
41.1	2.69066
41.11	2.70579
41.12	2.73079
41.13	2.72685
41.14	2.6979
41.15	2.68408
41.16	2.73145
41.17	2.73343
41.18	2.71369
41.19	2.7206
41.2	2.71797
41.21	2.70283
41.22	2.73672
41.23	2.72783
41.24	2.68967
41.25	2.69757
41.26	2.71731
41.27	2.70678
41.28	2.70382
41.29	2.69889
41.3	2.72718
41.31	2.7275
41.32	2.70908
41.33	2.69658
41.34	2.73836
41.35	2.71435
41.36	2.71533
41.37	2.7354
41.38	2.71797
41.39	2.75678
41.4	2.73244
41.41	2.71928
41.42	2.71303
41.43	2.70119
41.44	2.70777
41.45	2.70349
41.46	2.71468
41.47	2.73902
41.48	2.73277
41.49	2.72849
41.5	2.72553
41.51	2.70908
41.52	2.75349
41.53	2.74001
41.54	2.71468
41.55	2.70678
41.56	2.7275
41.57	2.72093
41.58	2.70283
41.59	2.70086
41.6	2.69527
41.61	2.69395
41.62	2.73704
41.63	2.75251
41.64	2.75119
41.65	2.75777
41.66	2.73376
41.67	2.73737
41.68	2.7206
41.69	2.73047
41.7	2.70152
41.71	2.71665
41.72	2.7081
41.73	2.70349
41.74	2.7479
41.75	2.69757
41.76	2.73047
41.77	2.74593
41.78	2.70415
41.79	2.71928
41.8	2.72191
41.81	2.73441
41.82	2.72915
41.83	2.70382
41.84	2.67948
41.85	2.71665
41.86	2.72981
41.87	2.71369
41.88	2.69329
41.89	2.71435
41.9	2.70941
41.91	2.7104
41.92	2.71533
41.93	2.73145
41.94	2.73112
41.95	2.74428
41.96	2.70218
41.97	2.70777
41.98	2.71829
41.99	2.73474
42	2.7081
42.01	2.72158
42.02	2.74626
42.03	2.71106
42.04	2.74198
42.05	2.75514
42.06	2.77257
42.07	2.71862
42.08	2.72125
42.09	2.74297
42.1	2.7206
42.11	2.67454
42.12	2.7252
42.13	2.71895
42.14	2.71764
42.15	2.7558
42.16	2.71007
42.17	2.73244
42.18	2.72224
42.19	2.74099
42.2	2.7354
42.21	2.7206
42.22	2.74527
42.23	2.73507
42.24	2.72093
42.25	2.73869
42.26	2.72389
42.27	2.73343
42.28	2.73935
42.29	2.7331
42.3	2.69954
42.31	2.70579
42.32	2.70086
42.33	2.70119
42.34	2.74658
42.35	2.74527
42.36	2.68639
42.37	2.72191
42.38	2.72981
42.39	2.73244
42.4	2.71797
42.41	2.73014
42.42	2.69889
42.43	2.75152
42.44	2.72553
42.45	2.69
42.46	2.71797
42.47	2.69921
42.48	2.73047
42.49	2.70218
42.5	2.71764
42.51	2.71073
42.52	2.71237
42.53	2.70185
42.54	2.72093
42.55	2.72652
42.56	2.6956
42.57	2.7081
42.58	2.73935
42.59	2.7025
42.6	2.71764
42.61	2.70546
42.62	2.70777
42.63	2.7206
42.64	2.71139
42.65	2.69889
42.66	2.72422
42.67	2.72487
42.68	2.71336
42.69	2.71336
42.7	2.6979
42.71	2.72586
42.72	2.68836
42.73	2.69757
42.74	2.7229
42.75	2.7331
42.76	2.70678
42.77	2.71007
42.78	2.69198
42.79	2.73935
42.8	2.70053
42.81	2.70481
42.82	2.72389
42.83	2.72191
42.84	2.72125
42.85	2.73178
42.86	2.71928
42.87	2.71303
42.88	2.73704
42.89	2.72454
42.9	2.71632
42.91	2.74691
42.92	2.70185
42.93	2.71204
42.94	2.72093
42.95	2.72849
42.96	2.72783
42.97	2.67487
42.98	2.68737
42.99	2.7002
43	2.7127
43.01	2.71632
43.02	2.72915
43.03	2.72323
43.04	2.67224
43.05	2.72125
43.06	2.73408
43.07	2.71336
43.08	2.66402
43.09	2.7206
43.1	2.71336
43.11	2.68145
43.12	2.71698
43.13	2.73376
43.14	2.71829
43.15	2.73277
43.16	2.71336
43.17	2.7025
43.18	2.73639
43.19	2.75448
43.2	2.70086
43.21	2.71237
43.22	2.71698
43.23	2.70579
43.24	2.73145
43.25	2.72816
43.26	2.70283
43.27	2.71369
43.28	2.71303
43.29	2.70415
43.3	2.70645
43.31	2.67356
43.32	2.68671
43.33	2.70349
43.34	2.7081
43.35	2.715
43.36	2.69658
43.37	2.70481
43.38	2.71797
43.39	2.7252
43.4	2.68178
43.41	2.71566
43.42	2.73244
43.43	2.71961
43.44	2.71303
43.45	2.71204
43.46	2.70415
43.47	2.70185
43.48	2.73343
43.49	2.72619
43.5	2.70843
43.51	2.69099
43.52	2.72619
43.53	2.73145
43.54	2.71435
43.55	2.7206
43.56	2.71895
43.57	2.71961
43.58	2.71797
43.59	2.7104
43.6	2.71566
43.61	2.72158
43.62	2.75283
43.63	2.73178
43.64	2.70974
43.65	2.69329
43.66	2.70415
43.67	2.74395
43.68	2.72454
43.69	2.7331
43.7	2.71007
43.71	2.71303
43.72	2.72816
43.73	2.70218
43.74	2.72487
43.75	2.7354
43.76	2.7252
43.77	2.73079
43.78	2.71862
43.79	2.72389
43.8	2.73902
43.81	2.70678
43.82	2.71862
43.83	2.72652
43.84	2.72027
43.85	2.68836
43.86	2.73178
43.87	2.73277
43.88	2.69099
43.89	2.68704
43.9	2.71829
43.91	2.68737
43.92	2.68474
43.93	2.70908
43.94	2.7252
43.95	2.72948
43.96	2.71665
43.97	2.69527
43.98	2.7127
43.99	2.71829
44	2.70382
44.01	2.70875
44.02	2.72619
44.03	2.73408
44.04	2.71599
44.05	2.70514
44.06	2.71106
44.07	2.71961
44.08	2.7206
44.09	2.73047
44.1	2.7252
44.11	2.72158
44.12	2.73112
44.13	2.75152
44.14	2.70185
44.15	2.7331
44.16	2.70744
44.17	2.71829
44.18	2.72915
44.19	2.70777
44.2	2.68704
44.21	2.70053
44.22	2.72783
44.23	2.73079
44.24	2.73079
44.25	2.71665
44.26	2.70218
44.27	2.7002
44.28	2.71764
44.29	2.71961
44.3	2.73047
44.31	2.73803
44.32	2.7104
44.33	2.68704
44.34	2.69658
44.35	2.69198
44.36	2.72125
44.37	2.70941
44.38	2.71764
44.39	2.71994
44.4	2.71336
44.41	2.71303
44.42	2.74329
44.43	2.70612
44.44	2.73606
44.45	2.71599
44.46	2.70843
44.47	2.71073
44.48	2.69889
44.49	2.72356
44.5	2.71994
44.51	2.74198
44.52	2.76369
44.53	2.73639
44.54	2.7252
44.55	2.73606
44.56	2.72783
44.57	2.72981
44.58	2.71797
44.59	2.69066
44.6	2.7025
44.61	2.73244
44.62	2.7377
44.63	2.69033
44.64	2.72158
44.65	2.71994
44.66	2.70941
44.67	2.7206
44.68	2.71369
44.69	2.7127
44.7	2.69527
44.71	2.75053
44.72	2.7252
44.73	2.74658
44.74	2.73145
44.75	2.71237
44.76	2.70908
44.77	2.70777
44.78	2.71797
44.79	2.69856
44.8	2.7229
44.81	2.66961
44.82	2.71336
44.83	2.71862
44.84	2.71797
44.85	2.7229
44.86	2.69165
44.87	2.69329
44.88	2.69395
44.89	2.74165
44.9	2.69724
44.91	2.69461
44.92	2.68079
44.93	2.71764
44.94	2.72389
44.95	2.7127
44.96	2.70316
44.97	2.69428
44.98	2.7104
44.99	2.69428
45	2.70974
45.01	2.69165
45.02	2.71632
45.03	2.71139
45.04	2.69362
45.05	2.67027
45.06	2.67685
45.07	2.71599
45.08	2.73474
45.09	2.7081
45.1	2.69954
45.11	2.70908
45.12	2.69099
45.13	2.71698
45.14	2.74461
45.15	2.74593
45.16	2.74856
45.17	2.74264
45.18	2.71204
45.19	2.72389
45.2	2.71566
45.21	2.72882
45.22	2.71928
45.23	2.74461
45.24	2.72619
45.25	2.70678
45.26	2.70875
45.27	2.7104
45.28	2.70053
45.29	2.73343
45.3	2.74132
45.31	2.70283
45.32	2.7229
45.33	2.71566
45.34	2.6956
45.35	2.71928
45.36	2.715
45.37	2.72685
45.38	2.71994
45.39	2.6854
45.4	2.72652
45.41	2.69329
45.42	2.7627
45.43	2.74362
45.44	2.70612
45.45	2.72224
45.46	2.72323
45.47	2.72849
45.48	2.7206
45.49	2.71007
45.5	2.73573
45.51	2.72849
45.52	2.72652
45.53	2.70283
45.54	2.69264
45.55	2.6877
45.56	2.7025
45.57	2.69296
45.58	2.70185
45.59	2.72882
45.6	2.74461
45.61	2.7206
45.62	2.70711
45.63	2.73277
45.64	2.71961
45.65	2.69592
45.66	2.69987
45.67	2.71665
45.68	2.70974
45.69	2.69329
45.7	2.71961
45.71	2.715
45.72	2.72356
45.73	2.71698
45.74	2.73803
45.75	2.72356
45.76	2.70218
45.77	2.7025
45.78	2.72652
45.79	2.71698
45.8	2.72257
45.81	2.73145
45.82	2.69954
45.83	2.71139
45.84	2.71073
45.85	2.70086
45.86	2.70777
45.87	2.72619
45.88	2.74724
45.89	2.71402
45.9	2.71994
45.91	2.71073
45.92	2.69658
45.93	2.73935
45.94	2.7252
45.95	2.72783
45.96	2.73474
45.97	2.73704
45.98	2.72981
45.99	2.76501
46	2.73376
46.01	2.69889
46.02	2.70152
46.03	2.75349
46.04	2.71303
46.05	2.67586
46.06	2.7104
46.07	2.70974
46.08	2.67586
46.09	2.73408
46.1	2.74724
46.11	2.71895
46.12	2.71336
46.13	2.71303
46.14	2.65842
46.15	2.70283
46.16	2.71468
46.17	2.72948
46.18	2.68935
46.19	2.71402
46.2	2.72849
46.21	2.70218
46.22	2.72915
46.23	2.70448
46.24	2.71106
46.25	2.69461
46.26	2.71435
46.27	2.75481
46.28	2.70316
46.29	2.70086
46.3	2.6979
46.31	2.68803
46.32	2.70941
46.33	2.70448
46.34	2.72586
46.35	2.73737
46.36	2.70908
46.37	2.69921
46.38	2.70612
46.39	2.70546
46.4	2.70843
46.41	2.6956
46.42	2.7025
46.43	2.70415
46.44	2.72553
46.45	2.68342
46.46	2.69
46.47	2.70119
46.48	2.73968
46.49	2.7252
46.5	2.69691
46.51	2.66862
46.52	2.71599
46.53	2.69757
46.54	2.68606
46.55	2.69987
46.56	2.71731
46.57	2.71303
46.58	2.70974
46.59	2.70185
46.6	2.70645
46.61	2.73244
46.62	2.68836
46.63	2.68211
46.64	2.71237
46.65	2.69428
46.66	2.71106
46.67	2.72849
46.68	2.73836
46.69	2.73803
46.7	2.71369
46.71	2.71204
46.72	2.73079
46.73	2.70974
46.74	2.69198
46.75	2.72685
46.76	2.7331
46.77	2.715
46.78	2.73047
46.79	2.71599
46.8	2.72981
46.81	2.71303
46.82	2.73408
46.83	2.71895
46.84	2.74856
46.85	2.70744
46.86	2.69198
46.87	2.72981
46.88	2.71632
46.89	2.72816
46.9	2.72191
46.91	2.71237
46.92	2.70875
46.93	2.69921
46.94	2.69099
46.95	2.71139
46.96	2.72158
46.97	2.71895
46.98	2.7081
46.99	2.69066
47	2.71171
47.01	2.70908
47.02	2.7127
47.03	2.72323
47.04	2.71665
47.05	2.70316
47.06	2.72027
47.07	2.73935
47.08	2.70843
47.09	2.69099
47.1	2.72257
47.11	2.69823
47.12	2.69165
47.13	2.68211
47.14	2.70645
47.15	2.72783
47.16	2.68902
47.17	2.68474
47.18	2.70514
47.19	2.71007
47.2	2.72389
47.21	2.72553
47.22	2.7229
47.23	2.72125
47.24	2.7354
47.25	2.72224
47.26	2.71698
47.27	2.73935
47.28	2.69823
47.29	2.70218
47.3	2.71171
47.31	2.70086
47.32	2.69921
47.33	2.74001
47.34	2.73639
47.35	2.69198
47.36	2.70415
47.37	2.68046
47.38	2.73376
47.39	2.72454
47.4	2.70941
47.41	2.72356
47.42	2.6775
47.43	2.665
47.44	2.70086
47.45	2.69494
47.46	2.67816
47.47	2.71369
47.48	2.69132
47.49	2.73935
47.5	2.73244
47.51	2.71303
47.52	2.73408
47.53	2.73935
47.54	2.76139
47.55	2.72718
47.56	2.70744
47.57	2.67816
47.58	2.72915
47.59	2.72553
47.6	2.71007
47.61	2.73112
47.62	2.69527
47.63	2.7275
47.64	2.72158
47.65	2.7104
47.66	2.72882
47.67	2.71764
47.68	2.73112
47.69	2.73803
47.7	2.74264
47.71	2.74099
47.72	2.71829
47.73	2.72389
47.74	2.72586
47.75	2.72783
47.76	2.71862
47.77	2.70941
47.78	2.70481
47.79	2.70218
47.8	2.68178
47.81	2.70744
47.82	2.72882
47.83	2.72915
47.84	2.72652
47.85	2.72816
47.86	2.69428
47.87	2.70546
47.88	2.72652
47.89	2.74494
47.9	2.75316
47.91	2.7127
47.92	2.7127
47.93	2.71862
47.94	2.68441
47.95	2.71994
47.96	2.71665
47.97	2.71698
47.98	2.71303
47.99	2.69
48	2.70875
48.01	2.72487
48.02	2.70053
48.03	2.68803
48.04	2.72027
48.05	2.72718
48.06	2.69757
48.07	2.7206
48.08	2.73244
48.09	2.70941
48.1	2.69724
48.11	2.69494
48.12	2.70086
48.13	2.7002
48.14	2.71862
48.15	2.71994
48.16	2.70744
48.17	2.7081
48.18	2.69198
48.19	2.7354
48.2	2.70185
48.21	2.71895
48.22	2.71566
48.23	2.7581
48.24	2.71106
48.25	2.69921
48.26	2.71139
48.27	2.74165
48.28	2.73408
48.29	2.70908
48.3	2.69165
48.31	2.69296
48.32	2.73704
48.33	2.72652
48.34	2.73014
48.35	2.72191
48.36	2.72849
48.37	2.74165
48.38	2.71533
48.39	2.71533
48.4	2.71632
48.41	2.71139
48.42	2.72224
48.43	2.69921
48.44	2.72553
48.45	2.72027
48.46	2.70612
48.47	2.67849
48.48	2.69658
48.49	2.72553
48.5	2.70908
48.51	2.72652
48.52	2.7275
48.53	2.69658
48.54	2.66073
48.55	2.69592
48.56	2.71731
48.57	2.71204
48.58	2.71533
48.59	2.72981
48.6	2.70481
48.61	2.72586
48.62	2.715
48.63	2.71468
48.64	2.7252
48.65	2.72553
48.66	2.7275
48.67	2.68671
48.68	2.71797
48.69	2.71402
48.7	2.70744
48.71	2.6956
48.72	2.72389
48.73	2.7127
48.74	2.73244
48.75	2.75218
48.76	2.72257
48.77	2.71303
48.78	2.72224
48.79	2.72224
48.8	2.70579
48.81	2.68639
48.82	2.74823
48.83	2.70086
48.84	2.68178
48.85	2.71797
48.86	2.71797
48.87	2.73244
48.88	2.73211
48.89	2.72882
48.9	2.71468
48.91	2.7354
48.92	2.75086
48.93	2.70843
48.94	2.6877
48.95	2.71895
48.96	2.73376
48.97	2.74757
48.98	2.73178
48.99	2.68935
49	2.70744
49.01	2.71698
49.02	2.73145
49.03	2.71632
49.04	2.72093
49.05	2.73836
49.06	2.75448
49.07	2.71829
49.08	2.72619
49.09	2.72158
49.1	2.70086
49.11	2.72389
49.12	2.71797
49.13	2.68375
49.14	2.72882
49.15	2.72356
49.16	2.73145
49.17	2.69296
49.18	2.71895
49.19	2.69987
49.2	2.69625
49.21	2.68013
49.22	2.71533
49.23	2.6956
49.24	2.71468
49.25	2.72422
49.26	2.7377
49.27	2.73836
49.28	2.68573
49.29	2.71928
49.3	2.73935
49.31	2.7275
49.32	2.7331
49.33	2.71139
49.34	2.68507
49.35	2.72718
49.36	2.69461
49.37	2.70908
49.38	2.72882
49.39	2.72389
49.4	2.73968
49.41	2.69757
49.42	2.71237
49.43	2.70974
49.44	2.73836
49.45	2.73968
49.46	2.73178
49.47	2.7456
49.48	2.72652
49.49	2.71829
49.5	2.74658
49.51	2.72685
49.52	2.72915
49.53	2.74593
49.54	2.72981
49.55	2.69823
49.56	2.72487
49.57	2.77389
49.58	2.75119
49.59	2.7206
49.6	2.70744
49.61	2.67652
49.62	2.74165
49.63	2.74856
49.64	2.74001
49.65	2.72981
49.66	2.69132
49.67	2.68211
49.68	2.71961
49.69	2.71632
49.7	2.72422
49.71	2.71829
49.72	2.71698
49.73	2.74066
49.74	2.70185
49.75	2.71698
49.76	2.7229
49.77	2.74626
49.78	2.75481
49.79	2.72389
49.8	2.72125
49.81	2.70875
49.82	2.73211
49.83	2.71468
49.84	2.71171
49.85	2.71928
49.86	2.71204
49.87	2.71402
49.88	2.70941
49.89	2.69494
49.9	2.71369
49.91	2.69921
49.92	2.72783
49.93	2.71468
49.94	2.69329
49.95	2.73211
49.96	2.72422
49.97	2.71369
49.98	2.7025
49.99	2.73507
50	2.72323
