"BIO-KINE ASCII FILE"
"_COMMENT"	"MOS-500 Spectrometer"
"_COMMENT"	"Kinetics measurement"
"_COMMENT"	"Y Unit : Volt,  X Unit : s"
"_COMMENT"	"Excitation wavelength : 380 nm"
"_COMMENT"	"Fentes bandwidth =  1 nm"
"_COMMENT"	"HV= 1000V"
"_COMMENT"	"Timebase  1 =  .01 s   5001 pts"
"_SFM"	"SFM-400 /S  Advanced mode"
"_SFM"	"Ratio : S1: 2.5, S2: 0, S3: 0, S4: 1"
"_SFM"	"Content : S1: , S2: , S3: , S4:"
"_SFM"	"Concentration : S1: , S2: , S3: , S4:"
"_SFM"	"Total volume : 209 µl  Flow : 3.5 mL/s"
"_SFM"	"Acquisition start :  10 ms before stop"
"_SFM"	"cuve=FC-15, s1=10 ml , s2=10 ml , s3=10 ml , s4=1.9 ml"
"_UNITX"	"s"
"_UNITY"	"Volt"
"_DELTAX"	0
"_DATA"
1e-300	2.68145
0.01	2.67783
0.02	2.73047
0.03	2.80185
0.04	2.86665
0.05	2.89823
0.06	2.90383
0.07	2.9137
0.08	2.91468
0.09	2.96205
0.1	2.97718
0.11	3.00811
0.12	2.9808
0.13	2.9933
0.14	2.99297
0.15	3.00942
0.16	2.98804
0.17	3.01205
0.18	3.00844
0.19	2.98146
0.2	3.00021
0.21	2.98705
0.22	2.98179
0.23	2.99561
0.24	2.97126
0.25	2.97982
0.26	2.96732
0.27	3.02488
0.28	2.99297
0.29	3.00482
0.3	3.02061
0.31	3.03048
0.32	2.99396
0.33	2.97258
0.34	3.00613
0.35	2.99297
0.36	3.00317
0.37	3.00087
0.38	2.98574
0.39	2.98343
0.4	2.98936
0.41	3.00251
0.42	2.99495
0.43	2.99396
0.44	3.00679
0.45	2.98837
0.46	2.98936
0.47	2.99626
0.48	2.97982
0.49	3.00942
0.5	3.01567
0.51	3.01501
0.52	3.01863
0.53	3.00811
0.54	2.97291
0.55	3.01732
0.56	3.01238
0.57	3.0035
0.58	2.98804
0.59	2.99692
0.6	2.96797
0.61	3.01501
0.62	3.01732
0.63	3.00251
0.64	3.01798
0.65	3.0058
0.66	3.00416
0.67	2.99363
0.68	3.01238
0.69	3.0012
0.7	2.99791
0.71	2.95975
0.72	2.96107
0.73	2.98146
0.74	3.00679
0.75	2.97949
0.76	2.98771
0.77	2.98179
0.78	2.97784
0.79	2.9933
0.8	2.98936
0.81	2.99725
0.82	3.00909
0.83	2.99857
0.84	2.99133
0.85	2.97455
0.86	3.00745
0.87	3.02587
0.88	3.02686
0.89	2.99561
0.9	2.98014
0.91	2.97883
0.92	3.00679
0.93	2.95712
0.94	2.99232
0.95	2.96008
0.96	3.01633
0.97	2.99265
0.98	2.97916
0.99	2.98179
1	2.98541
1.01	3.00449
1.02	3.00186
1.03	3.0012
1.04	2.97949
1.05	2.94495
1.06	3.00844
1.07	3.0114
1.08	2.98771
1.09	2.98607
1.1	2.97521
1.11	2.96205
1.12	2.97587
1.13	2.97982
1.14	2.95021
1.15	2.98376
1.16	3.02357
1.17	2.99297
1.18	2.95021
1.19	2.95679
1.2	2.9989
1.21	2.99396
1.22	2.98574
1.23	2.96041
1.24	2.9887
1.25	2.96666
1.26	2.96337
1.27	2.97521
1.28	2.99133
1.29	2.98738
1.3	2.9808
1.31	2.97192
1.32	2.97817
1.33	3.00284
1.34	2.98311
1.35	2.96074
1.36	2.95712
1.37	2.98804
1.38	2.97126
1.39	2.97093
1.4	2.97817
1.41	2.95975
1.42	2.97521
1.43	3.00745
1.44	2.99429
1.45	2.95251
1.46	2.95679
1.47	2.95712
1.48	2.97225
1.49	2.9581
1.5	2.96567
1.51	2.99001
1.52	2.96699
1.53	2.98705
1.54	2.9785
1.55	2.99791
1.56	3.00449
1.57	2.98376
1.58	2.96139
1.59	2.9456
1.6	2.97784
1.61	2.9637
1.62	2.98146
1.63	2.98442
1.64	2.99001
1.65	2.97192
1.66	2.97554
1.67	2.9387
1.68	2.95284
1.69	2.96534
1.7	2.97291
1.71	2.9808
1.72	2.95613
1.73	2.96304
1.74	2.98146
1.75	2.97686
1.76	2.97159
1.77	2.95712
1.78	2.98442
1.79	2.96633
1.8	2.98014
1.81	2.966
1.82	2.98245
1.83	2.97653
1.84	2.9683
1.85	2.94297
1.86	2.97521
1.87	2.96041
1.88	2.99791
1.89	2.99528
1.9	2.96008
1.91	2.95449
1.92	2.99297
1.93	2.94429
1.94	2.95153
1.95	2.96304
1.96	2.9637
1.97	2.92159
1.98	2.94659
1.99	2.95383
2	2.95054
2.01	2.95942
2.02	2.96764
2.03	2.92981
2.04	2.941
2.05	2.94133
2.06	2.96732
2.07	2.96008
2.08	2.97521
2.09	2.95284
2.1	2.92981
2.11	2.95646
2.12	2.93738
2.13	2.95876
2.14	2.9637
2.15	2.96567
2.16	2.98475
2.17	2.95514
2.18	2.94199
2.19	2.96238
2.2	2.96337
2.21	2.93574
2.22	2.95843
2.23	2.93837
2.24	2.95514
2.25	2.95745
2.26	2.93968
2.27	2.95284
2.28	2.95745
2.29	2.92587
2.3	2.95613
2.31	2.95021
2.32	2.97686
2.33	2.9512
2.34	2.92916
2.35	2.94922
2.36	2.9581
2.37	2.95153
2.38	2.91863
2.39	2.93606
2.4	2.92685
2.41	2.95087
2.42	2.93738
2.43	2.92126
2.44	2.92422
2.45	2.94495
2.46	2.94133
2.47	2.92192
2.48	2.97488
2.49	2.95843
2.5	2.93771
2.51	2.95679
2.52	2.95745
2.53	2.94593
2.54	2.96633
2.55	2.91435
2.56	2.93574
2.57	2.93277
2.58	2.966
2.59	2.93672
2.6	2.96666
2.61	2.94692
2.62	2.93475
2.63	2.92652
2.64	2.93837
2.65	2.93212
2.66	2.92685
2.67	2.95449
2.68	2.95745
2.69	2.93212
2.7	2.95613
2.71	2.95745
2.72	2.95679
2.73	2.91468
2.74	2.93837
2.75	2.93179
2.76	2.94725
2.77	2.96666
2.78	2.92126
2.79	2.91435
2.8	2.94725
2.81	2.95745
2.82	2.93606
2.83	2.95317
2.84	2.9081
2.85	2.92356
2.86	2.91106
2.87	2.92751
2.88	2.93903
2.89	2.96666
2.9	2.95317
2.91	2.93212
2.92	2.9262
2.93	2.94429
2.94	2.96271
2.95	2.92225
2.96	2.93376
2.97	2.96764
2.98	2.97949
2.99	2.95876
3	2.91797
3.01	2.90712
3.02	2.9262
3.03	2.93968
3.04	2.93014
3.05	2.9206
3.06	2.8854
3.07	2.94889
3.08	2.95745
3.09	2.95054
3.1	2.94034
3.11	2.95876
3.12	2.92916
3.13	2.92455
3.14	2.94528
3.15	2.94725
3.16	2.95679
3.17	2.91698
3.18	2.92751
3.19	2.94133
3.2	2.96041
3.21	2.92027
3.22	2.9183
3.23	2.91863
3.24	2.92652
3.25	2.92817
3.26	2.93606
3.27	2.9262
3.28	2.96205
3.29	2.91633
3.3	2.91337
3.31	2.94264
3.32	2.92883
3.33	2.92093
3.34	2.92093
3.35	2.94166
3.36	2.95087
3.37	2.9581
3.38	2.92587
3.39	2.90843
3.4	2.90054
3.41	2.93179
3.42	2.95054
3.43	2.9331
3.44	2.95284
3.45	2.90317
3.46	2.92718
3.47	2.91172
3.48	2.93343
3.49	2.92192
3.5	2.91337
3.51	2.89692
3.52	2.93047
3.53	2.91041
3.54	2.90218
3.55	2.89231
3.56	2.93376
3.57	2.9456
3.58	2.93672
3.59	2.93442
3.6	2.89231
3.61	2.89198
3.62	2.89297
3.63	2.9137
3.64	2.90679
3.65	2.92027
3.66	2.93343
3.67	2.93442
3.68	2.93376
3.69	2.92455
3.7	2.92291
3.71	2.93146
3.72	2.9262
3.73	2.93935
3.74	2.93837
3.75	2.93212
3.76	2.93113
3.77	2.90284
3.78	2.92751
3.79	2.94824
3.8	2.9331
3.81	2.92718
3.82	2.90679
3.83	2.92784
3.84	2.93606
3.85	2.92159
3.86	2.91863
3.87	2.8956
3.88	2.89462
3.89	2.90284
3.9	2.9262
3.91	2.91139
3.92	2.91402
3.93	2.92027
3.94	2.91073
3.95	2.89856
3.96	2.9183
3.97	2.9035
3.98	2.89889
3.99	2.91271
4	2.9081
4.01	2.87883
4.02	2.9285
4.03	2.941
4.04	2.91698
4.05	2.93014
4.06	2.93179
4.07	2.93903
4.08	2.941
4.09	2.92093
4.1	2.88738
4.11	2.89034
4.12	2.916
4.13	2.92817
4.14	2.94791
4.15	2.89659
4.16	2.87455
4.17	2.87948
4.18	2.88804
4.19	2.90613
4.2	2.90613
4.21	2.91764
4.22	2.91666
4.23	2.9058
4.24	2.89889
4.25	2.88738
4.26	2.93639
4.27	2.93935
4.28	2.89593
4.29	2.88508
4.3	2.91205
4.31	2.9512
4.32	2.91468
4.33	2.89692
4.34	2.90317
4.35	2.90514
4.36	2.91435
4.37	2.88639
4.38	2.8683
4.39	2.87619
4.4	2.90909
4.41	2.9387
4.42	2.92554
4.43	2.92389
4.44	2.93672
4.45	2.89363
4.46	2.88639
4.47	2.91205
4.48	2.9262
4.49	2.93014
4.5	2.91567
4.51	2.92685
4.52	2.90843
4.53	2.91172
4.54	2.89988
4.55	2.91205
4.56	2.91337
4.57	2.88573
4.58	2.88837
4.59	2.88179
4.6	2.88212
4.61	2.88442
4.62	2.91304
4.63	2.916
4.64	2.8604
4.65	2.87455
4.66	2.8854
4.67	2.941
4.68	2.93508
4.69	2.8854
4.7	2.89034
4.71	2.87455
4.72	2.84692
4.73	2.86008
4.74	2.87751
4.75	2.91205
4.76	2.88376
4.77	2.91304
4.78	2.88639
4.79	2.89922
4.8	2.87652
4.81	2.88277
4.82	2.92718
4.83	2.94363
4.84	2.91863
4.85	2.89133
4.86	2.86336
4.87	2.90218
4.88	2.89791
4.89	2.89922
4.9	2.8933
4.91	2.9206
4.92	2.86731
4.93	2.89593
4.94	2.90613
4.95	2.90646
4.96	2.90054
4.97	2.90975
4.98	2.89823
4.99	2.89791
5	2.89988
5.01	2.88376
5.02	2.90218
5.03	2.89133
5.04	2.91534
5.05	2.87915
5.06	2.87652
5.07	2.8683
5.08	2.8831
5.09	2.8808
5.1	2.89198
5.11	2.89889
5.12	2.9183
5.13	2.88179
5.14	2.89725
5.15	2.89001
5.16	2.88244
5.17	2.91271
5.18	2.88409
5.19	2.91008
5.2	2.8785
5.21	2.89198
5.22	2.91666
5.23	2.8933
5.24	2.89001
5.25	2.88902
5.26	2.88837
5.27	2.87126
5.28	2.87455
5.29	2.88902
5.3	2.88837
5.31	2.891
5.32	2.89955
5.33	2.92093
5.34	2.87915
5.35	2.91008
5.36	2.88146
5.37	2.88179
5.38	2.89001
5.39	2.87915
5.4	2.86896
5.41	2.88376
5.42	2.88672
5.43	2.85876
5.44	2.90021
5.45	2.88771
5.46	2.88902
5.47	2.89264
5.48	2.89429
5.49	2.89166
5.5	2.86567
5.51	2.89231
5.52	2.84593
5.53	2.89297
5.54	2.88935
5.55	2.89527
5.56	2.84692
5.57	2.86994
5.58	2.85251
5.59	2.90119
5.6	2.92455
5.61	2.88244
5.62	2.85711
5.63	2.86008
5.64	2.88606
5.65	2.85975
5.66	2.891
5.67	2.89593
5.68	2.88902
5.69	2.91468
5.7	2.90054
5.71	2.89264
5.72	2.916
5.73	2.91271
5.74	2.89166
5.75	2.89034
5.76	2.89889
5.77	2.92324
5.78	2.89396
5.79	2.92554
5.8	2.89429
5.81	2.88837
5.82	2.88212
5.83	2.8785
5.84	2.89166
5.85	2.88573
5.86	2.86238
5.87	2.88902
5.88	2.89659
5.89	2.90119
5.9	2.87784
5.91	2.87554
5.92	2.866
5.93	2.87225
5.94	2.90514
5.95	2.88804
5.96	2.90087
5.97	2.8581
5.98	2.86764
5.99	2.88902
6	2.89593
6.01	2.87784
6.02	2.87389
6.03	2.88902
6.04	2.89231
6.05	2.89231
6.06	2.83573
6.07	2.85152
6.08	2.87225
6.09	2.90185
6.1	2.86534
6.11	2.86797
6.12	2.86139
6.13	2.87915
6.14	2.8831
6.15	2.86468
6.16	2.89593
6.17	2.87981
6.18	2.87751
6.19	2.86106
6.2	2.85152
6.21	2.88277
6.22	2.8956
6.23	2.87258
6.24	2.88277
6.25	2.89297
6.26	2.88837
6.27	2.85942
6.28	2.88639
6.29	2.86501
6.3	2.87587
6.31	2.88968
6.32	2.87587
6.33	2.87422
6.34	2.85119
6.35	2.866
6.36	2.89264
6.37	2.86961
6.38	2.87718
6.39	2.85382
6.4	2.89593
6.41	2.86929
6.42	2.86994
6.43	2.88672
6.44	2.86008
6.45	2.86994
6.46	2.88705
6.47	2.87488
6.48	2.88179
6.49	2.87587
6.5	2.88047
6.51	2.84297
6.52	2.85317
6.53	2.85975
6.54	2.88475
6.55	2.87258
6.56	2.90087
6.57	2.87718
6.58	2.8729
6.59	2.89363
6.6	2.83409
6.61	2.89791
6.62	2.91501
6.63	2.87093
6.64	2.84264
6.65	2.88014
6.66	2.85744
6.67	2.87587
6.68	2.87225
6.69	2.91041
6.7	2.93837
6.71	2.89231
6.72	2.85448
6.73	2.87784
6.74	2.87488
6.75	2.86139
6.76	2.88475
6.77	2.89823
6.78	2.87488
6.79	2.84165
6.8	2.85843
6.81	2.85448
6.82	2.86304
6.83	2.8808
6.84	2.87389
6.85	2.84725
6.86	2.82619
6.87	2.84527
6.88	2.85711
6.89	2.86073
6.9	2.87554
6.91	2.87027
6.92	2.84955
6.93	2.86797
6.94	2.86336
6.95	2.88738
6.96	2.88606
6.97	2.88212
6.98	2.8933
6.99	2.89363
7	2.82915
7.01	2.85021
7.02	2.89955
7.03	2.87422
7.04	2.86336
7.05	2.82751
7.06	2.86205
7.07	2.88212
7.08	2.86567
7.09	2.85711
7.1	2.86304
7.11	2.82521
7.12	2.84264
7.13	2.84988
7.14	2.88475
7.15	2.89988
7.16	2.86501
7.17	2.87356
7.18	2.86369
7.19	2.88442
7.2	2.87225
7.21	2.86468
7.22	2.86633
7.23	2.90679
7.24	2.86008
7.25	2.86534
7.26	2.88244
7.27	2.86238
7.28	2.88376
7.29	2.89231
7.3	2.88968
7.31	2.86008
7.32	2.88343
7.33	2.89001
7.34	2.85744
7.35	2.87488
7.36	2.85909
7.37	2.84396
7.38	2.88146
7.39	2.86369
7.4	2.87422
7.41	2.85448
7.42	2.8183
7.43	2.84001
7.44	2.85119
7.45	2.85777
7.46	2.86369
7.47	2.89791
7.48	2.84725
7.49	2.85547
7.5	2.86633
7.51	2.85284
7.52	2.85152
7.53	2.87159
7.54	2.86468
7.55	2.87455
7.56	2.87126
7.57	2.86994
7.58	2.86501
7.59	2.86896
7.6	2.85744
7.61	2.88277
7.62	2.86106
7.63	2.85119
7.64	2.88573
7.65	2.89856
7.66	2.86073
7.67	2.85317
7.68	2.84692
7.69	2.84988
7.7	2.87817
7.71	2.8785
7.72	2.87126
7.73	2.8581
7.74	2.85481
7.75	2.84692
7.76	2.84198
7.77	2.83211
7.78	2.86501
7.79	2.85843
7.8	2.84626
7.81	2.86929
7.82	2.86106
7.83	2.86567
7.84	2.85843
7.85	2.84396
7.86	2.87685
7.87	2.84757
7.88	2.88869
7.89	2.85251
7.9	2.82356
7.91	2.86633
7.92	2.8558
7.93	2.87883
7.94	2.85218
7.95	2.83475
7.96	2.84823
7.97	2.86863
7.98	2.88804
7.99	2.8683
8	2.87883
8.01	2.86238
8.02	2.83771
8.03	2.84396
8.04	2.87126
8.05	2.86896
8.06	2.85054
8.07	2.84955
8.08	2.85054
8.09	2.84132
8.1	2.86336
8.11	2.83409
8.12	2.866
8.13	2.85284
8.14	2.83738
8.15	2.81698
8.16	2.84231
8.17	2.85382
8.18	2.83968
8.19	2.84889
8.2	2.86764
8.21	2.86205
8.22	2.81172
8.23	2.82488
8.24	2.84659
8.25	2.8581
8.26	2.83211
8.27	2.83902
8.28	2.85021
8.29	2.81205
8.3	2.84231
8.31	2.85382
8.32	2.81961
8.33	2.83244
8.34	2.86961
8.35	2.86304
8.36	2.83869
8.37	2.8354
8.38	2.8479
8.39	2.84231
8.4	2.87323
8.41	2.88705
8.42	2.85481
8.43	2.85086
8.44	2.86205
8.45	2.8535
8.46	2.83902
8.47	2.85909
8.48	2.85942
8.49	2.84132
8.5	2.83277
8.51	2.8354
8.52	2.84461
8.53	2.86073
8.54	2.87258
8.55	2.86961
8.56	2.85646
8.57	2.88343
8.58	2.87323
8.59	2.84001
8.6	2.82981
8.61	2.83211
8.62	2.84494
8.63	2.85448
8.64	2.84889
8.65	2.86238
8.66	2.84593
8.67	2.85218
8.68	2.86073
8.69	2.87422
8.7	2.85086
8.71	2.86304
8.72	2.82521
8.73	2.84922
8.74	2.86698
8.75	2.8331
8.76	2.84363
8.77	2.86073
8.78	2.83113
8.79	2.84231
8.8	2.85514
8.81	2.83277
8.82	2.84067
8.83	2.87948
8.84	2.87225
8.85	2.84527
8.86	2.85711
8.87	2.88409
8.88	2.84955
8.89	2.84363
8.9	2.83211
8.91	2.81468
8.92	2.82323
8.93	2.83442
8.94	2.8285
8.95	2.81599
8.96	2.85054
8.97	2.83705
8.98	2.82224
8.99	2.84461
9	2.84725
9.01	2.86698
9.02	2.8354
9.03	2.84363
9.04	2.84001
9.05	2.84001
9.06	2.8535
9.07	2.87126
9.08	2.83803
9.09	2.84692
9.1	2.84988
9.11	2.85415
9.12	2.87356
9.13	2.83146
9.14	2.81731
9.15	2.82882
9.16	2.8785
9.17	2.84955
9.18	2.83935
9.19	2.86567
9.2	2.8558
9.21	2.84988
9.22	2.8331
9.23	2.83869
9.24	2.87652
9.25	2.86797
9.26	2.86139
9.27	2.85415
9.28	2.8229
9.29	2.82553
9.3	2.80843
9.31	2.85185
9.32	2.8331
9.33	2.83606
9.34	2.8456
9.35	2.83705
9.36	2.83047
9.37	2.8479
9.38	2.83014
9.39	2.8535
9.4	2.83771
9.41	2.85251
9.42	2.83507
9.43	2.84856
9.44	2.84692
9.45	2.84132
9.46	2.85448
9.47	2.83935
9.48	2.80711
9.49	2.82586
9.5	2.81764
9.51	2.82652
9.52	2.85942
9.53	2.87521
9.54	2.84922
9.55	2.83672
9.56	2.8308
9.57	2.82586
9.58	2.83639
9.59	2.80876
9.6	2.83507
9.61	2.8331
9.62	2.83442
9.63	2.81106
9.64	2.83836
9.65	2.83803
9.66	2.81599
9.67	2.87587
9.68	2.86665
9.69	2.83277
9.7	2.8081
9.71	2.82093
9.72	2.85152
9.73	2.82224
9.74	2.81238
9.75	2.85876
9.76	2.85448
9.77	2.82586
9.78	2.84955
9.79	2.81928
9.8	2.80481
9.81	2.81665
9.82	2.8285
9.83	2.82455
9.84	2.85086
9.85	2.86402
9.86	2.85711
9.87	2.85218
9.88	2.86534
9.89	2.83902
9.9	2.81698
9.91	2.82751
9.92	2.87258
9.93	2.84955
9.94	2.84165
9.95	2.82356
9.96	2.79955
9.97	2.81468
9.98	2.81238
9.99	2.8433
10	2.82455
10.01	2.83672
10.02	2.82751
10.03	2.82488
10.04	2.82652
10.05	2.82389
10.06	2.83376
10.07	2.8206
10.08	2.84231
10.09	2.83869
10.1	2.83178
10.11	2.82488
10.12	2.83902
10.13	2.83869
10.14	2.83146
10.15	2.83869
10.16	2.8354
10.17	2.80777
10.18	2.83442
10.19	2.84396
10.2	2.83146
10.21	2.82652
10.22	2.82027
10.23	2.84856
10.24	2.82586
10.25	2.82455
10.26	2.83968
10.27	2.83606
10.28	2.81534
10.29	2.82422
10.3	2.80382
10.31	2.85975
10.32	2.8456
10.33	2.82981
10.34	2.81665
10.35	2.84659
10.36	2.82948
10.37	2.80547
10.38	2.80415
10.39	2.83705
10.4	2.8002
10.41	2.81139
10.42	2.79099
10.43	2.82488
10.44	2.83836
10.45	2.86271
10.46	2.82093
10.47	2.8433
10.48	2.84527
10.49	2.80942
10.5	2.82192
10.51	2.8308
10.52	2.82685
10.53	2.82159
10.54	2.82455
10.55	2.8206
10.56	2.78639
10.57	2.81896
10.58	2.85251
10.59	2.82323
10.6	2.83178
10.61	2.80777
10.62	2.83573
10.63	2.8229
10.64	2.81106
10.65	2.80909
10.66	2.79099
10.67	2.84692
10.68	2.85021
10.69	2.81139
10.7	2.81665
10.71	2.82422
10.72	2.83014
10.73	2.82751
10.74	2.81106
10.75	2.80547
10.76	2.81731
10.77	2.82981
10.78	2.82356
10.79	2.81435
10.8	2.82323
10.81	2.79461
10.82	2.80547
10.83	2.79527
10.84	2.84001
10.85	2.83836
10.86	2.84231
10.87	2.82652
10.88	2.82093
10.89	2.8433
10.9	2.83343
10.91	2.85054
10.92	2.82619
10.93	2.86435
10.94	2.81172
10.95	2.82356
10.96	2.84067
10.97	2.81468
10.98	2.84889
10.99	2.83803
11	2.85448
11.01	2.84396
11.02	2.83705
11.03	2.82718
11.04	2.8285
11.05	2.81369
11.06	2.83639
11.07	2.79856
11.08	2.78507
11.09	2.83639
11.1	2.84067
11.11	2.84527
11.12	2.80415
11.13	2.82981
11.14	2.82224
11.15	2.81336
11.16	2.84034
11.17	2.85415
11.18	2.82093
11.19	2.80185
11.2	2.81336
11.21	2.81599
11.22	2.79922
11.23	2.80086
11.24	2.82027
11.25	2.83277
11.26	2.84659
11.27	2.79527
11.28	2.80251
11.29	2.82192
11.3	2.83968
11.31	2.85218
11.32	2.83211
11.33	2.84297
11.34	2.84165
11.35	2.84494
11.36	2.81698
11.37	2.83113
11.38	2.83409
11.39	2.81961
11.4	2.81928
11.41	2.79823
11.42	2.82981
11.43	2.84889
11.44	2.80086
11.45	2.77948
11.46	2.80053
11.47	2.80645
11.48	2.80777
11.49	2.79494
11.5	2.81863
11.51	2.81369
11.52	2.79428
11.53	2.81205
11.54	2.81797
11.55	2.80152
11.56	2.80415
11.57	2.83211
11.58	2.83113
11.59	2.81961
11.6	2.83475
11.61	2.81073
11.62	2.841
11.63	2.82784
11.64	2.84264
11.65	2.79099
11.66	2.80218
11.67	2.82586
11.68	2.78409
11.69	2.8206
11.7	2.82553
11.71	2.80152
11.72	2.841
11.73	2.80284
11.74	2.80909
11.75	2.84034
11.76	2.82981
11.77	2.84067
11.78	2.80284
11.79	2.81797
11.8	2.81073
11.81	2.78409
11.82	2.79692
11.83	2.81238
11.84	2.82192
11.85	2.83014
11.86	2.81139
11.87	2.82192
11.88	2.81534
11.89	2.80777
11.9	2.83211
11.91	2.82586
11.92	2.82586
11.93	2.82257
11.94	2.84001
11.95	2.79264
11.96	2.80317
11.97	2.81764
11.98	2.83869
11.99	2.82586
12	2.81238
12.01	2.81928
12.02	2.81797
12.03	2.79395
12.04	2.81205
12.05	2.81336
12.06	2.85711
12.07	2.8308
12.08	2.79626
12.09	2.74198
12.1	2.7854
12.11	2.83178
12.12	2.83376
12.13	2.85284
12.14	2.80843
12.15	2.81863
12.16	2.8206
12.17	2.78409
12.18	2.81698
12.19	2.84165
12.2	2.83869
12.21	2.81534
12.22	2.80613
12.23	2.77816
12.24	2.81073
12.25	2.82586
12.26	2.81205
12.27	2.80251
12.28	2.81007
12.29	2.82027
12.3	2.83475
12.31	2.83935
12.32	2.8683
12.33	2.84264
12.34	2.83836
12.35	2.81698
12.36	2.8104
12.37	2.79363
12.38	2.79922
12.39	2.8206
12.4	2.82323
12.41	2.83146
12.42	2.85021
12.43	2.85185
12.44	2.83803
12.45	2.83047
12.46	2.81402
12.47	2.80876
12.48	2.82652
12.49	2.8331
12.5	2.83376
12.51	2.81567
12.52	2.82126
12.53	2.80053
12.54	2.82586
12.55	2.83672
12.56	2.80678
12.57	2.84264
12.58	2.83475
12.59	2.8081
12.6	2.82422
12.61	2.80382
12.62	2.85119
12.63	2.85613
12.64	2.83507
12.65	2.81369
12.66	2.82422
12.67	2.8331
12.68	2.78441
12.69	2.79165
12.7	2.81007
12.71	2.85843
12.72	2.81961
12.73	2.78014
12.74	2.76731
12.75	2.80481
12.76	2.8558
12.77	2.83014
12.78	2.83211
12.79	2.83672
12.8	2.79264
12.81	2.80218
12.82	2.82356
12.83	2.84198
12.84	2.79922
12.85	2.79494
12.86	2.80185
12.87	2.8229
12.88	2.84198
12.89	2.82455
12.9	2.83244
12.91	2.81961
12.92	2.7604
12.93	2.80481
12.94	2.82817
12.95	2.8683
12.96	2.85086
12.97	2.81863
12.98	2.7831
12.99	2.80481
13	2.82915
13.01	2.80942
13.02	2.84231
13.03	2.84231
13.04	2.83968
13.05	2.82455
13.06	2.78902
13.07	2.80645
13.08	2.81402
13.09	2.79264
13.1	2.76501
13.11	2.81172
13.12	2.82882
13.13	2.83047
13.14	2.83475
13.15	2.78639
13.16	2.79066
13.17	2.79494
13.18	2.82586
13.19	2.78836
13.2	2.7979
13.21	2.80218
13.22	2.82915
13.23	2.83146
13.24	2.81007
13.25	2.80284
13.26	2.83014
13.27	2.83113
13.28	2.83475
13.29	2.8433
13.3	2.8002
13.31	2.80974
13.32	2.80218
13.33	2.80119
13.34	2.83639
13.35	2.83705
13.36	2.81106
13.37	2.79066
13.38	2.78376
13.39	2.79264
13.4	2.80678
13.41	2.79823
13.42	2.80119
13.43	2.81632
13.44	2.83803
13.45	2.83902
13.46	2.80711
13.47	2.83409
13.48	2.81106
13.49	2.81435
13.5	2.80053
13.51	2.8002
13.52	2.78935
13.53	2.81501
13.54	2.82521
13.55	2.79988
13.56	2.79626
13.57	2.81599
13.58	2.80251
13.59	2.80119
13.6	2.78113
13.61	2.7956
13.62	2.79198
13.63	2.81238
13.64	2.80777
13.65	2.84165
13.66	2.81139
13.67	2.80678
13.68	2.81896
13.69	2.81271
13.7	2.81238
13.71	2.77323
13.72	2.79231
13.73	2.8183
13.74	2.78376
13.75	2.78573
13.76	2.79297
13.77	2.81073
13.78	2.841
13.79	2.77816
13.8	2.80349
13.81	2.81073
13.82	2.80843
13.83	2.79099
13.84	2.79034
13.85	2.81731
13.86	2.83047
13.87	2.81369
13.88	2.79527
13.89	2.8002
13.9	2.79001
13.91	2.82455
13.92	2.79066
13.93	2.81468
13.94	2.80711
13.95	2.84659
13.96	2.80909
13.97	2.80777
13.98	2.7854
13.99	2.77849
14	2.81501
14.01	2.78902
14.02	2.7831
14.03	2.82882
14.04	2.78803
14.05	2.82224
14.06	2.80876
14.07	2.84396
14.08	2.84132
14.09	2.80909
14.1	2.84001
14.11	2.84363
14.12	2.82784
14.13	2.83968
14.14	2.81928
14.15	2.7854
14.16	2.81928
14.17	2.82356
14.18	2.82126
14.19	2.84067
14.2	2.8081
14.21	2.79659
14.22	2.81106
14.23	2.8104
14.24	2.79198
14.25	2.78902
14.26	2.79428
14.27	2.83113
14.28	2.81303
14.29	2.77224
14.3	2.78178
14.31	2.81336
14.32	2.79823
14.33	2.81271
14.34	2.82882
14.35	2.80317
14.36	2.83014
14.37	2.8206
14.38	2.82422
14.39	2.80876
14.4	2.82488
14.41	2.82159
14.42	2.81994
14.43	2.82356
14.44	2.86567
14.45	2.81369
14.46	2.77586
14.47	2.8229
14.48	2.79297
14.49	2.79856
14.5	2.80909
14.51	2.77685
14.52	2.82882
14.53	2.78639
14.54	2.80547
14.55	2.79988
14.56	2.84494
14.57	2.77981
14.58	2.78672
14.59	2.81369
14.6	2.79494
14.61	2.79757
14.62	2.82192
14.63	2.80185
14.64	2.78639
14.65	2.78639
14.66	2.8285
14.67	2.75908
14.68	2.81731
14.69	2.80744
14.7	2.79001
14.71	2.82586
14.72	2.82422
14.73	2.81336
14.74	2.80909
14.75	2.80251
14.76	2.7933
14.77	2.81534
14.78	2.82323
14.79	2.79297
14.8	2.82126
14.81	2.81435
14.82	2.79001
14.83	2.80086
14.84	2.82553
14.85	2.81336
14.86	2.79724
14.87	2.81172
14.88	2.79395
14.89	2.80547
14.9	2.82257
14.91	2.8081
14.92	2.80415
14.93	2.83935
14.94	2.8002
14.95	2.77948
14.96	2.81863
14.97	2.81402
14.98	2.80284
14.99	2.82323
15	2.80382
15.01	2.80349
15.02	2.83803
15.03	2.81698
15.04	2.78836
15.05	2.76731
15.06	2.78376
15.07	2.81271
15.08	2.81764
15.09	2.81271
15.1	2.80415
15.11	2.81994
15.12	2.78376
15.13	2.80744
15.14	2.82784
15.15	2.8104
15.16	2.79099
15.17	2.79659
15.18	2.80711
15.19	2.82323
15.2	2.8285
15.21	2.79034
15.22	2.79034
15.23	2.81599
15.24	2.82553
15.25	2.79132
15.26	2.82652
15.27	2.81336
15.28	2.8081
15.29	2.80777
15.3	2.76566
15.31	2.75415
15.32	2.80448
15.33	2.83409
15.34	2.81797
15.35	2.82915
15.36	2.82093
15.37	2.78869
15.38	2.81435
15.39	2.79001
15.4	2.80382
15.41	2.77882
15.42	2.82455
15.43	2.83639
15.44	2.80547
15.45	2.80942
15.46	2.81238
15.47	2.80382
15.48	2.80317
15.49	2.79856
15.5	2.77915
15.51	2.79724
15.52	2.79264
15.53	2.82981
15.54	2.79955
15.55	2.80909
15.56	2.8081
15.57	2.79988
15.58	2.80942
15.59	2.78869
15.6	2.78672
15.61	2.82422
15.62	2.79626
15.63	2.79001
15.64	2.77586
15.65	2.77882
15.66	2.79198
15.67	2.82718
15.68	2.81139
15.69	2.81205
15.7	2.80645
15.71	2.78803
15.72	2.78211
15.73	2.76764
15.74	2.77619
15.75	2.81501
15.76	2.79955
15.77	2.78869
15.78	2.78968
15.79	2.78376
15.8	2.79428
15.81	2.75744
15.82	2.81336
15.83	2.8331
15.84	2.7706
15.85	2.82981
15.86	2.76139
15.87	2.78409
15.88	2.80152
15.89	2.81731
15.9	2.8081
15.91	2.79099
15.92	2.80218
15.93	2.8058
15.94	2.79955
15.95	2.81567
15.96	2.8229
15.97	2.79363
15.98	2.80218
15.99	2.79823
16	2.81172
16.01	2.78803
16.02	2.80086
16.03	2.81106
16.04	2.79626
16.05	2.77619
16.06	2.80415
16.07	2.8206
16.08	2.80284
16.09	2.80284
16.1	2.78244
16.11	2.79823
16.12	2.76665
16.13	2.77159
16.14	2.75119
16.15	2.78474
16.16	2.81106
16.17	2.80448
16.18	2.77422
16.19	2.78935
16.2	2.7627
16.21	2.79626
16.22	2.79066
16.23	2.78113
16.24	2.79626
16.25	2.80744
16.26	2.79988
16.27	2.79527
16.28	2.77915
16.29	2.77784
16.3	2.76205
16.31	2.79231
16.32	2.79395
16.33	2.78376
16.34	2.83376
16.35	2.78836
16.36	2.81567
16.37	2.82093
16.38	2.81632
16.39	2.79955
16.4	2.82488
16.41	2.81567
16.42	2.79428
16.43	2.81863
16.44	2.80645
16.45	2.79099
16.46	2.76468
16.47	2.77093
16.48	2.80349
16.49	2.79099
16.5	2.79889
16.51	2.77948
16.52	2.80547
16.53	2.78738
16.54	2.81599
16.55	2.81369
16.56	2.7808
16.57	2.79231
16.58	2.79231
16.59	2.77652
16.6	2.78441
16.61	2.82521
16.62	2.77685
16.63	2.79692
16.64	2.79757
16.65	2.79889
16.66	2.83409
16.67	2.77751
16.68	2.77751
16.69	2.7854
16.7	2.77553
16.71	2.80942
16.72	2.81073
16.73	2.79001
16.74	2.81106
16.75	2.85054
16.76	2.80547
16.77	2.77257
16.78	2.79297
16.79	2.80909
16.8	2.80119
16.81	2.80218
16.82	2.80909
16.83	2.77455
16.84	2.78902
16.85	2.77915
16.86	2.79494
16.87	2.80777
16.88	2.7854
16.89	2.79132
16.9	2.76961
16.91	2.78606
16.92	2.78441
16.93	2.78178
16.94	2.80284
16.95	2.80678
16.96	2.79264
16.97	2.80613
16.98	2.7854
16.99	2.77948
17	2.79692
17.01	2.80119
17.02	2.79395
17.03	2.8104
17.04	2.81896
17.05	2.75645
17.06	2.8058
17.07	2.79724
17.08	2.79066
17.09	2.7877
17.1	2.75415
17.11	2.78409
17.12	2.81303
17.13	2.80349
17.14	2.8456
17.15	2.84429
17.16	2.79988
17.17	2.80547
17.18	2.81205
17.19	2.8104
17.2	2.80547
17.21	2.80185
17.22	2.80218
17.23	2.77816
17.24	2.77553
17.25	2.79955
17.26	2.77981
17.27	2.80251
17.28	2.80382
17.29	2.80514
17.3	2.80349
17.31	2.78803
17.32	2.81073
17.33	2.79922
17.34	2.82751
17.35	2.81501
17.36	2.78803
17.37	2.78507
17.38	2.77487
17.39	2.82915
17.4	2.79527
17.41	2.76369
17.42	2.75777
17.43	2.80251
17.44	2.83869
17.45	2.81534
17.46	2.78014
17.47	2.78738
17.48	2.80349
17.49	2.79001
17.5	2.78343
17.51	2.78113
17.52	2.78606
17.53	2.81435
17.54	2.7752
17.55	2.76303
17.56	2.7752
17.57	2.77126
17.58	2.80777
17.59	2.78178
17.6	2.7502
17.61	2.78441
17.62	2.78441
17.63	2.78803
17.64	2.79659
17.65	2.79757
17.66	2.82652
17.67	2.79066
17.68	2.7627
17.69	2.79757
17.7	2.82356
17.71	2.80218
17.72	2.7627
17.73	2.76895
17.74	2.7956
17.75	2.78441
17.76	2.80744
17.77	2.80448
17.78	2.77191
17.79	2.78968
17.8	2.82224
17.81	2.79264
17.82	2.79757
17.83	2.7831
17.84	2.79198
17.85	2.79593
17.86	2.77619
17.87	2.75876
17.88	2.77422
17.89	2.80185
17.9	2.79724
17.91	2.76994
17.92	2.77455
17.93	2.79461
17.94	2.75349
17.95	2.78178
17.96	2.8002
17.97	2.77389
17.98	2.79165
17.99	2.7933
18	2.80152
18.01	2.79297
18.02	2.77784
18.03	2.76534
18.04	2.78803
18.05	2.76698
18.06	2.78211
18.07	2.78672
18.08	2.81764
18.09	2.77093
18.1	2.7956
18.11	2.78211
18.12	2.80974
18.13	2.77718
18.14	2.76501
18.15	2.79724
18.16	2.8058
18.17	2.78343
18.18	2.76895
18.19	2.78145
18.2	2.78441
18.21	2.83968
18.22	2.8081
18.23	2.78474
18.24	2.81764
18.25	2.80053
18.26	2.81928
18.27	2.80251
18.28	2.79034
18.29	2.77981
18.3	2.76632
18.31	2.80185
18.32	2.78277
18.33	2.8002
18.34	2.81073
18.35	2.77948
18.36	2.79757
18.37	2.79626
18.38	2.80185
18.39	2.80152
18.4	2.8104
18.41	2.79165
18.42	2.78705
18.43	2.79692
18.44	2.78705
18.45	2.78738
18.46	2.7604
18.47	2.78606
18.48	2.79692
18.49	2.81369
18.5	2.78639
18.51	2.79823
18.52	2.77389
18.53	2.78606
18.54	2.7729
18.55	2.77027
18.56	2.75908
18.57	2.77093
18.58	2.77619
18.59	2.77816
18.6	2.80284
18.61	2.8104
18.62	2.81994
18.63	2.80678
18.64	2.81139
18.65	2.8081
18.66	2.79363
18.67	2.7604
18.68	2.75744
18.69	2.74823
18.7	2.77389
18.71	2.7831
18.72	2.74889
18.73	2.78869
18.74	2.81073
18.75	2.79988
18.76	2.80876
18.77	2.80514
18.78	2.81665
18.79	2.81764
18.8	2.80514
18.81	2.7558
18.82	2.79856
18.83	2.80086
18.84	2.80284
18.85	2.80613
18.86	2.76237
18.87	2.78705
18.88	2.75053
18.89	2.7706
18.9	2.79494
18.91	2.8002
18.92	2.76369
18.93	2.76698
18.94	2.7706
18.95	2.79198
18.96	2.7502
18.97	2.75251
18.98	2.79363
18.99	2.77455
19	2.75053
19.01	2.78474
19.02	2.76961
19.03	2.81534
19.04	2.78869
19.05	2.77981
19.06	2.80711
19.07	2.79823
19.08	2.7831
19.09	2.79593
19.1	2.79099
19.11	2.81731
19.12	2.82422
19.13	2.80251
19.14	2.77126
19.15	2.76698
19.16	2.7854
19.17	2.78606
19.18	2.79001
19.19	2.78145
19.2	2.78441
19.21	2.77257
19.22	2.76895
19.23	2.78507
19.24	2.80185
19.25	2.78047
19.26	2.75349
19.27	2.78343
19.28	2.82553
19.29	2.82159
19.3	2.82981
19.31	2.76566
19.32	2.78474
19.33	2.78935
19.34	2.77027
19.35	2.79889
19.36	2.78902
19.37	2.78869
19.38	2.79922
19.39	2.81106
19.4	2.78409
19.41	2.80843
19.42	2.76402
19.43	2.76797
19.44	2.79034
19.45	2.77882
19.46	2.79823
19.47	2.78409
19.48	2.79955
19.49	2.81632
19.5	2.77718
19.51	2.7558
19.52	2.78507
19.53	2.78113
19.54	2.79198
19.55	2.79231
19.56	2.79264
19.57	2.79428
19.58	2.77356
19.59	2.80613
19.6	2.79198
19.61	2.77619
19.62	2.80152
19.63	2.75086
19.64	2.7808
19.65	2.78441
19.66	2.78573
19.67	2.78935
19.68	2.78441
19.69	2.79165
19.7	2.79066
19.71	2.77652
19.72	2.76402
19.73	2.77981
19.74	2.76007
19.75	2.75645
19.76	2.7854
19.77	2.82126
19.78	2.81863
19.79	2.77323
19.8	2.79626
19.81	2.80349
19.82	2.77948
19.83	2.77257
19.84	2.76172
19.85	2.76928
19.86	2.78211
19.87	2.79626
19.88	2.78244
19.89	2.78705
19.9	2.80547
19.91	2.77586
19.92	2.75941
19.93	2.79889
19.94	2.78145
19.95	2.79198
19.96	2.76797
19.97	2.78902
19.98	2.80777
19.99	2.76928
20	2.7956
20.01	2.81599
20.02	2.78606
20.03	2.78935
20.04	2.78145
20.05	2.78935
20.06	2.77718
20.07	2.80284
20.08	2.80909
20.09	2.80613
20.1	2.78606
20.11	2.79231
20.12	2.77487
20.13	2.77389
20.14	2.76007
20.15	2.79527
20.16	2.80185
20.17	2.82422
20.18	2.79099
20.19	2.77323
20.2	2.7627
20.21	2.80942
20.22	2.7581
20.23	2.79132
20.24	2.77257
20.25	2.76435
20.26	2.78606
20.27	2.82093
20.28	2.79527
20.29	2.78803
20.3	2.7581
20.31	2.79494
20.32	2.78705
20.33	2.77849
20.34	2.79231
20.35	2.81369
20.36	2.81007
20.37	2.78836
20.38	2.7729
20.39	2.77093
20.4	2.75843
20.41	2.80909
20.42	2.7956
20.43	2.78869
20.44	2.7831
20.45	2.79099
20.46	2.76106
20.47	2.77159
20.48	2.77257
20.49	2.75415
20.5	2.78113
20.51	2.79231
20.52	2.78474
20.53	2.73704
20.54	2.7752
20.55	2.78211
20.56	2.79001
20.57	2.79889
20.58	2.76139
20.59	2.76994
20.6	2.77915
20.61	2.75744
20.62	2.76435
20.63	2.77126
20.64	2.78474
20.65	2.77257
20.66	2.78968
20.67	2.77224
20.68	2.78376
20.69	2.77191
20.7	2.77356
20.71	2.78803
20.72	2.76895
20.73	2.78343
20.74	2.77981
20.75	2.78639
20.76	2.78244
20.77	2.76731
20.78	2.75645
20.79	2.76468
20.8	2.80678
20.81	2.82948
20.82	2.80843
20.83	2.7979
20.84	2.7604
20.85	2.76468
20.86	2.75974
20.87	2.80086
20.88	2.78409
20.89	2.77981
20.9	2.80185
20.91	2.79132
20.92	2.77685
20.93	2.78244
20.94	2.78474
20.95	2.78277
20.96	2.7627
20.97	2.7354
20.98	2.73869
20.99	2.75185
21	2.7479
21.01	2.77948
21.02	2.77191
21.03	2.79231
21.04	2.76632
21.05	2.79494
21.06	2.79264
21.07	2.77652
21.08	2.78178
21.09	2.7752
21.1	2.78178
21.11	2.79527
21.12	2.77882
21.13	2.78211
21.14	2.79297
21.15	2.79988
21.16	2.7683
21.17	2.75152
21.18	2.75876
21.19	2.75481
21.2	2.78014
21.21	2.76764
21.22	2.78738
21.23	2.77126
21.24	2.77487
21.25	2.74757
21.26	2.77586
21.27	2.76698
21.28	2.7558
21.29	2.77784
21.3	2.79001
21.31	2.77784
21.32	2.78902
21.33	2.75448
21.34	2.78606
21.35	2.8002
21.36	2.78014
21.37	2.78606
21.38	2.78343
21.39	2.80645
21.4	2.78376
21.41	2.76599
21.42	2.78211
21.43	2.79132
21.44	2.78441
21.45	2.75119
21.46	2.76435
21.47	2.79001
21.48	2.80974
21.49	2.8081
21.5	2.77784
21.51	2.77224
21.52	2.80448
21.53	2.7854
21.54	2.80317
21.55	2.79922
21.56	2.77422
21.57	2.78178
21.58	2.7558
21.59	2.78277
21.6	2.7729
21.61	2.7627
21.62	2.79231
21.63	2.76303
21.64	2.74922
21.65	2.76599
21.66	2.79889
21.67	2.77422
21.68	2.77586
21.69	2.78968
21.7	2.77455
21.71	2.77553
21.72	2.7706
21.73	2.75645
21.74	2.80317
21.75	2.80876
21.76	2.78145
21.77	2.73737
21.78	2.73343
21.79	2.7581
21.8	2.74724
21.81	2.77389
21.82	2.80317
21.83	2.79922
21.84	2.76205
21.85	2.78836
21.86	2.78211
21.87	2.7831
21.88	2.77816
21.89	2.78738
21.9	2.77948
21.91	2.78145
21.92	2.77652
21.93	2.77389
21.94	2.78672
21.95	2.80481
21.96	2.78672
21.97	2.79001
21.98	2.77652
21.99	2.79692
22	2.76961
22.01	2.76007
22.02	2.78211
22.03	2.79823
22.04	2.80514
22.05	2.76731
22.06	2.79823
22.07	2.78738
22.08	2.77422
22.09	2.76566
22.1	2.81665
22.11	2.79099
22.12	2.78113
22.13	2.77224
22.14	2.78474
22.15	2.77816
22.16	2.80053
22.17	2.76961
22.18	2.77323
22.19	2.7854
22.2	2.77718
22.21	2.74626
22.22	2.77882
22.23	2.79955
22.24	2.81205
22.25	2.81106
22.26	2.82488
22.27	2.79428
22.28	2.77389
22.29	2.77619
22.3	2.80317
22.31	2.80678
22.32	2.80218
22.33	2.78277
22.34	2.80382
22.35	2.75448
22.36	2.76665
22.37	2.75481
22.38	2.78244
22.39	2.74889
22.4	2.76862
22.41	2.76895
22.42	2.76665
22.43	2.78244
22.44	2.74757
22.45	2.78902
22.46	2.77751
22.47	2.77455
22.48	2.82192
22.49	2.79955
22.5	2.79889
22.51	2.78047
22.52	2.7877
22.53	2.83047
22.54	2.81599
22.55	2.79264
22.56	2.77455
22.57	2.7808
22.58	2.76106
22.59	2.7877
22.6	2.75612
22.61	2.7683
22.62	2.78014
22.63	2.7877
22.64	2.79724
22.65	2.78507
22.66	2.77751
22.67	2.79889
22.68	2.77422
22.69	2.76369
22.7	2.80053
22.71	2.81139
22.72	2.80481
22.73	2.76501
22.74	2.73277
22.75	2.78441
22.76	2.76862
22.77	2.75843
22.78	2.79922
22.79	2.77191
22.8	2.77652
22.81	2.78935
22.82	2.80053
22.83	2.79001
22.84	2.78705
22.85	2.79823
22.86	2.78277
22.87	2.77126
22.88	2.77915
22.89	2.76895
22.9	2.79099
22.91	2.77685
22.92	2.74099
22.93	2.76534
22.94	2.77159
22.95	2.77191
22.96	2.78244
22.97	2.78211
22.98	2.74987
22.99	2.76303
23	2.77816
23.01	2.76961
23.02	2.77915
23.03	2.79001
23.04	2.76468
23.05	2.75711
23.06	2.7683
23.07	2.76402
23.08	2.77882
23.09	2.77323
23.1	2.76895
23.11	2.7808
23.12	2.76303
23.13	2.7752
23.14	2.75974
23.15	2.79428
23.16	2.76928
23.17	2.80349
23.18	2.76534
23.19	2.75152
23.2	2.80086
23.21	2.77257
23.22	2.77257
23.23	2.81567
23.24	2.77652
23.25	2.78409
23.26	2.75744
23.27	2.78178
23.28	2.79494
23.29	2.77487
23.3	2.7706
23.31	2.78672
23.32	2.77027
23.33	2.7604
23.34	2.7502
23.35	2.78277
23.36	2.78409
23.37	2.77915
23.38	2.79494
23.39	2.77027
23.4	2.76534
23.41	2.77948
23.42	2.79001
23.43	2.81139
23.44	2.77257
23.45	2.79264
23.46	2.76468
23.47	2.76961
23.48	2.72093
23.49	2.77257
23.5	2.74231
23.51	2.74823
23.52	2.77948
23.53	2.76237
23.54	2.80053
23.55	2.81764
23.56	2.78277
23.57	2.7683
23.58	2.80284
23.59	2.79165
23.6	2.75711
23.61	2.76534
23.62	2.77882
23.63	2.77619
23.64	2.78014
23.65	2.78376
23.66	2.78606
23.67	2.76566
23.68	2.79626
23.69	2.76106
23.7	2.75711
23.71	2.78803
23.72	2.77948
23.73	2.77849
23.74	2.74889
23.75	2.77553
23.76	2.75382
23.77	2.77915
23.78	2.77487
23.79	2.77323
23.8	2.77784
23.81	2.76336
23.82	2.79527
23.83	2.76961
23.84	2.7581
23.85	2.7627
23.86	2.76928
23.87	2.7808
23.88	2.76566
23.89	2.78113
23.9	2.78606
23.91	2.77619
23.92	2.76402
23.93	2.74626
23.94	2.78935
23.95	2.7854
23.96	2.77159
23.97	2.76764
23.98	2.80481
23.99	2.7854
24	2.79264
24.01	2.78113
24.02	2.78376
24.03	2.77751
24.04	2.75448
24.05	2.76336
24.06	2.77619
24.07	2.76435
24.08	2.76599
24.09	2.79132
24.1	2.77948
24.11	2.79428
24.12	2.76895
24.13	2.78145
24.14	2.80053
24.15	2.80185
24.16	2.78343
24.17	2.76566
24.18	2.77455
24.19	2.78507
24.2	2.79593
24.21	2.79659
24.22	2.79066
24.23	2.77586
24.24	2.79198
24.25	2.7456
24.26	2.79099
24.27	2.77027
24.28	2.76402
24.29	2.79165
24.3	2.75744
24.31	2.78047
24.32	2.79626
24.33	2.79494
24.34	2.76073
24.35	2.79659
24.36	2.79165
24.37	2.78902
24.38	2.77191
24.39	2.77126
24.4	2.76961
24.41	2.75941
24.42	2.75876
24.43	2.78211
24.44	2.77652
24.45	2.7854
24.46	2.76665
24.47	2.75645
24.48	2.80448
24.49	2.78935
24.5	2.74823
24.51	2.81599
24.52	2.81534
24.53	2.79001
24.54	2.78869
24.55	2.74889
24.56	2.76797
24.57	2.79955
24.58	2.79132
24.59	2.8002
24.6	2.76961
24.61	2.78113
24.62	2.77948
24.63	2.79757
24.64	2.79001
24.65	2.73737
24.66	2.77619
24.67	2.77224
24.68	2.77422
24.69	2.76468
24.7	2.77718
24.71	2.80317
24.72	2.78902
24.73	2.79297
24.74	2.81007
24.75	2.78113
24.76	2.7729
24.77	2.75777
24.78	2.76237
24.79	2.77389
24.8	2.76895
24.81	2.76994
24.82	2.77027
24.83	2.79593
24.84	2.78211
24.85	2.79363
24.86	2.77816
24.87	2.79889
24.88	2.8058
24.89	2.78869
24.9	2.79363
24.91	2.77948
24.92	2.74691
24.93	2.74626
24.94	2.76468
24.95	2.7752
24.96	2.79823
24.97	2.78244
24.98	2.78606
24.99	2.80185
25	2.7581
25.01	2.77619
25.02	2.72816
25.03	2.79132
25.04	2.75974
25.05	2.76237
25.06	2.76139
25.07	2.78474
25.08	2.80481
25.09	2.78573
25.1	2.76895
25.11	2.77455
25.12	2.77619
25.13	2.77849
25.14	2.77553
25.15	2.77257
25.16	2.76106
25.17	2.77586
25.18	2.75941
25.19	2.76501
25.2	2.78738
25.21	2.76435
25.22	2.79593
25.23	2.79165
25.24	2.77027
25.25	2.76336
25.26	2.76994
25.27	2.7683
25.28	2.77751
25.29	2.78178
25.3	2.80185
25.31	2.78211
25.32	2.77257
25.33	2.74724
25.34	2.77389
25.35	2.77685
25.36	2.7729
25.37	2.76237
25.38	2.7683
25.39	2.77981
25.4	2.7581
25.41	2.71632
25.42	2.75941
25.43	2.7752
25.44	2.73507
25.45	2.76435
25.46	2.75514
25.47	2.7581
25.48	2.79231
25.49	2.76534
25.5	2.74593
25.51	2.78277
25.52	2.76928
25.53	2.80678
25.54	2.77718
25.55	2.75415
25.56	2.76599
25.57	2.74066
25.58	2.76665
25.59	2.75053
25.6	2.75645
25.61	2.76928
25.62	2.76237
25.63	2.78211
25.64	2.79001
25.65	2.77619
25.66	2.74395
25.67	2.78902
25.68	2.78178
25.69	2.75941
25.7	2.7683
25.71	2.77553
25.72	2.79363
25.73	2.78014
25.74	2.77093
25.75	2.79757
25.76	2.7683
25.77	2.76106
25.78	2.76731
25.79	2.76402
25.8	2.76468
25.81	2.75152
25.82	2.77718
25.83	2.77553
25.84	2.76139
25.85	2.7729
25.86	2.79593
25.87	2.80448
25.88	2.78573
25.89	2.76205
25.9	2.76895
25.91	2.76599
25.92	2.76303
25.93	2.77093
25.94	2.78409
25.95	2.79889
25.96	2.78211
25.97	2.77093
25.98	2.7683
25.99	2.77126
26	2.78376
26.01	2.79165
26.02	2.79988
26.03	2.77849
26.04	2.77487
26.05	2.7627
26.06	2.77126
26.07	2.76764
26.08	2.80843
26.09	2.78705
26.1	2.78573
26.11	2.7956
26.12	2.77422
26.13	2.7752
26.14	2.75053
26.15	2.76632
26.16	2.74527
26.17	2.76665
26.18	2.75185
26.19	2.77784
26.2	2.76106
26.21	2.76468
26.22	2.78836
26.23	2.78705
26.24	2.77751
26.25	2.78409
26.26	2.7729
26.27	2.78244
26.28	2.76895
26.29	2.78145
26.3	2.76534
26.31	2.76468
26.32	2.77882
26.33	2.74001
26.34	2.78014
26.35	2.76862
26.36	2.75152
26.37	2.75941
26.38	2.7808
26.39	2.74955
26.4	2.77948
26.41	2.8183
26.42	2.7808
26.43	2.76961
26.44	2.77849
26.45	2.78376
26.46	2.75349
26.47	2.73441
26.48	2.76994
26.49	2.76928
26.5	2.78409
26.51	2.76665
26.52	2.76205
26.53	2.80645
26.54	2.79889
26.55	2.7808
26.56	2.77159
26.57	2.77323
26.58	2.78244
26.59	2.75086
26.6	2.78672
26.61	2.75514
26.62	2.76435
26.63	2.80777
26.64	2.76402
26.65	2.77126
26.66	2.76665
26.67	2.7627
26.68	2.74461
26.69	2.76566
26.7	2.78178
26.71	2.78474
26.72	2.76369
26.73	2.74066
26.74	2.7581
26.75	2.74955
26.76	2.77159
26.77	2.77619
26.78	2.77159
26.79	2.7502
26.8	2.79527
26.81	2.76139
26.82	2.79034
26.83	2.76303
26.84	2.74955
26.85	2.7581
26.86	2.76665
26.87	2.81501
26.88	2.78507
26.89	2.76731
26.9	2.76731
26.91	2.78639
26.92	2.77159
26.93	2.76501
26.94	2.77981
26.95	2.74856
26.96	2.78343
26.97	2.7956
26.98	2.79724
26.99	2.78145
27	2.77619
27.01	2.78145
27.02	2.78968
27.03	2.78902
27.04	2.76468
27.05	2.75086
27.06	2.78014
27.07	2.77422
27.08	2.76632
27.09	2.80382
27.1	2.77685
27.11	2.77784
27.12	2.79165
27.13	2.82915
27.14	2.78639
27.15	2.77093
27.16	2.7854
27.17	2.7752
27.18	2.7752
27.19	2.77422
27.2	2.76237
27.21	2.75283
27.22	2.76402
27.23	2.7706
27.24	2.74428
27.25	2.76566
27.26	2.80086
27.27	2.77422
27.28	2.77126
27.29	2.80086
27.3	2.79231
27.31	2.77718
27.32	2.7706
27.33	2.80317
27.34	2.76369
27.35	2.7229
27.36	2.74757
27.37	2.75711
27.38	2.73803
27.39	2.75415
27.4	2.73244
27.41	2.75744
27.42	2.73639
27.43	2.7752
27.44	2.77257
27.45	2.75876
27.46	2.75415
27.47	2.75218
27.48	2.7581
27.49	2.76994
27.5	2.74395
27.51	2.79494
27.52	2.77849
27.53	2.78409
27.54	2.75251
27.55	2.77224
27.56	2.78113
27.57	2.77718
27.58	2.79757
27.59	2.78014
27.6	2.7581
27.61	2.77981
27.62	2.76566
27.63	2.74889
27.64	2.74461
27.65	2.76862
27.66	2.78474
27.67	2.76468
27.68	2.76961
27.69	2.74987
27.7	2.79494
27.71	2.77356
27.72	2.77027
27.73	2.77553
27.74	2.7604
27.75	2.79363
27.76	2.75152
27.77	2.79034
27.78	2.79626
27.79	2.76599
27.8	2.76369
27.81	2.79198
27.82	2.76501
27.83	2.7956
27.84	2.78145
27.85	2.77652
27.86	2.76797
27.87	2.75908
27.88	2.78738
27.89	2.77257
27.9	2.76073
27.91	2.73902
27.92	2.75349
27.93	2.78935
27.94	2.79856
27.95	2.76007
27.96	2.77027
27.97	2.77356
27.98	2.75382
27.99	2.7831
28	2.75744
28.01	2.77948
28.02	2.7502
28.03	2.76402
28.04	2.7956
28.05	2.76632
28.06	2.76205
28.07	2.78178
28.08	2.7683
28.09	2.76961
28.1	2.77093
28.11	2.76106
28.12	2.78113
28.13	2.75612
28.14	2.78409
28.15	2.76895
28.16	2.76862
28.17	2.78738
28.18	2.75382
28.19	2.78145
28.2	2.7729
28.21	2.76698
28.22	2.77784
28.23	2.76205
28.24	2.80218
28.25	2.78211
28.26	2.76172
28.27	2.74724
28.28	2.77323
28.29	2.77685
28.3	2.80876
28.31	2.79889
28.32	2.80514
28.33	2.78672
28.34	2.76731
28.35	2.76928
28.36	2.74823
28.37	2.76435
28.38	2.77093
28.39	2.76435
28.4	2.7831
28.41	2.8058
28.42	2.77027
28.43	2.76172
28.44	2.75283
28.45	2.76237
28.46	2.75678
28.47	2.77224
28.48	2.74264
28.49	2.76665
28.5	2.76764
28.51	2.78507
28.52	2.80448
28.53	2.77816
28.54	2.78902
28.55	2.76566
28.56	2.77389
28.57	2.76205
28.58	2.7502
28.59	2.77191
28.6	2.75974
28.61	2.80448
28.62	2.76073
28.63	2.74658
28.64	2.75415
28.65	2.7683
28.66	2.7581
28.67	2.7877
28.68	2.76303
28.69	2.76698
28.7	2.77981
28.71	2.75185
28.72	2.79757
28.73	2.79527
28.74	2.77915
28.75	2.7581
28.76	2.77685
28.77	2.76698
28.78	2.78507
28.79	2.79856
28.8	2.75711
28.81	2.7377
28.82	2.76007
28.83	2.78211
28.84	2.79757
28.85	2.80942
28.86	2.79066
28.87	2.76797
28.88	2.7604
28.89	2.7627
28.9	2.78902
28.91	2.79692
28.92	2.74494
28.93	2.75053
28.94	2.7854
28.95	2.77948
28.96	2.79692
28.97	2.76698
28.98	2.74955
28.99	2.76172
29	2.77126
29.01	2.75086
29.02	2.74922
29.03	2.75448
29.04	2.76172
29.05	2.73639
29.06	2.77816
29.07	2.79922
29.08	2.77191
29.09	2.7581
29.1	2.74724
29.11	2.78376
29.12	2.78474
29.13	2.78606
29.14	2.76632
29.15	2.79527
29.16	2.79461
29.17	2.79494
29.18	2.77027
29.19	2.77981
29.2	2.77619
29.21	2.74264
29.22	2.73112
29.23	2.73376
29.24	2.7627
29.25	2.75119
29.26	2.77356
29.27	2.77487
29.28	2.77487
29.29	2.76928
29.3	2.78211
29.31	2.78244
29.32	2.76139
29.33	2.78606
29.34	2.78573
29.35	2.77619
29.36	2.74231
29.37	2.7581
29.38	2.78277
29.39	2.77257
29.4	2.75547
29.41	2.76632
29.42	2.7729
29.43	2.75316
29.44	2.76435
29.45	2.7729
29.46	2.77882
29.47	2.75777
29.48	2.79034
29.49	2.74297
29.5	2.77027
29.51	2.76928
29.52	2.75678
29.53	2.77159
29.54	2.76928
29.55	2.73145
29.56	2.74724
29.57	2.77981
29.58	2.76073
29.59	2.78507
29.6	2.74626
29.61	2.75777
29.62	2.7808
29.63	2.7479
29.64	2.7706
29.65	2.80251
29.66	2.79757
29.67	2.77882
29.68	2.75119
29.69	2.76994
29.7	2.76961
29.71	2.77586
29.72	2.77389
29.73	2.75119
29.74	2.7683
29.75	2.7627
29.76	2.77422
29.77	2.76895
29.78	2.76106
29.79	2.76764
29.8	2.77784
29.81	2.79527
29.82	2.76928
29.83	2.75612
29.84	2.78606
29.85	2.74922
29.86	2.73507
29.87	2.75941
29.88	2.74757
29.89	2.8081
29.9	2.80843
29.91	2.75448
29.92	2.77981
29.93	2.78902
29.94	2.77652
29.95	2.74889
29.96	2.76303
29.97	2.76303
29.98	2.7854
29.99	2.78606
30	2.7808
30.01	2.75612
30.02	2.71468
30.03	2.76139
30.04	2.77356
30.05	2.76073
30.06	2.7831
30.07	2.76599
30.08	2.78145
30.09	2.76632
30.1	2.74987
30.11	2.80547
30.12	2.79922
30.13	2.77224
30.14	2.70843
30.15	2.75547
30.16	2.76797
30.17	2.77882
30.18	2.78902
30.19	2.79494
30.2	2.79001
30.21	2.7604
30.22	2.74527
30.23	2.75876
30.24	2.75645
30.25	2.76205
30.26	2.7752
30.27	2.78244
30.28	2.79034
30.29	2.7604
30.3	2.76073
30.31	2.78869
30.32	2.7502
30.33	2.74724
30.34	2.75152
30.35	2.77751
30.36	2.7752
30.37	2.76928
30.38	2.78836
30.39	2.79659
30.4	2.76007
30.41	2.75843
30.42	2.7752
30.43	2.77455
30.44	2.77751
30.45	2.79494
30.46	2.77257
30.47	2.77455
30.48	2.75053
30.49	2.76994
30.5	2.77257
30.51	2.78803
30.52	2.76764
30.53	2.77191
30.54	2.78113
30.55	2.7752
30.56	2.77257
30.57	2.74658
30.58	2.75547
30.59	2.78047
30.6	2.76797
30.61	2.78836
30.62	2.76073
30.63	2.72915
30.64	2.78474
30.65	2.77816
30.66	2.78277
30.67	2.79001
30.68	2.74395
30.69	2.76534
30.7	2.75974
30.71	2.7456
30.72	2.77126
30.73	2.77257
30.74	2.72454
30.75	2.79889
30.76	2.79099
30.77	2.77487
30.78	2.79198
30.79	2.78343
30.8	2.77849
30.81	2.77915
30.82	2.7604
30.83	2.74033
30.84	2.75218
30.85	2.7831
30.86	2.77257
30.87	2.77849
30.88	2.76566
30.89	2.75974
30.9	2.80974
30.91	2.76468
30.92	2.77619
30.93	2.7604
30.94	2.77389
30.95	2.76862
30.96	2.80678
30.97	2.76961
30.98	2.74987
30.99	2.75843
31	2.74066
31.01	2.79626
31.02	2.75744
31.03	2.76369
31.04	2.76139
31.05	2.76797
31.06	2.74987
31.07	2.7558
31.08	2.75448
31.09	2.78606
31.1	2.76106
31.11	2.78672
31.12	2.76994
31.13	2.74165
31.14	2.74757
31.15	2.7604
31.16	2.7604
31.17	2.74297
31.18	2.7683
31.19	2.80415
31.2	2.7558
31.21	2.76139
31.22	2.77816
31.23	2.75612
31.24	2.77389
31.25	2.76665
31.26	2.75251
31.27	2.75152
31.28	2.74955
31.29	2.78014
31.3	2.77224
31.31	2.76928
31.32	2.77389
31.33	2.76237
31.34	2.76895
31.35	2.76106
31.36	2.77191
31.37	2.78014
31.38	2.7683
31.39	2.77981
31.4	2.77981
31.41	2.74494
31.42	2.77685
31.43	2.76665
31.44	2.7502
31.45	2.73178
31.46	2.76139
31.47	2.77619
31.48	2.75514
31.49	2.76435
31.5	2.75645
31.51	2.76534
31.52	2.75218
31.53	2.76566
31.54	2.77882
31.55	2.80547
31.56	2.76994
31.57	2.76172
31.58	2.80086
31.59	2.7502
31.6	2.74297
31.61	2.72783
31.62	2.74329
31.63	2.76731
31.64	2.75678
31.65	2.73869
31.66	2.73606
31.67	2.75547
31.68	2.7558
31.69	2.78441
31.7	2.76007
31.71	2.77093
31.72	2.75251
31.73	2.76731
31.74	2.79231
31.75	2.78606
31.76	2.78968
31.77	2.78672
31.78	2.7479
31.79	2.74461
31.8	2.78409
31.81	2.77455
31.82	2.77619
31.83	2.80317
31.84	2.75843
31.85	2.77652
31.86	2.77981
31.87	2.77784
31.88	2.76961
31.89	2.77224
31.9	2.77093
31.91	2.78343
31.92	2.77553
31.93	2.7854
31.94	2.76237
31.95	2.7729
31.96	2.77323
31.97	2.7831
31.98	2.79626
31.99	2.7604
32	2.77816
32.01	2.77553
32.02	2.75941
32.03	2.78277
32.04	2.7558
32.05	2.75908
32.06	2.78803
32.07	2.79626
32.08	2.80876
32.09	2.75514
32.1	2.77487
32.11	2.76895
32.12	2.77257
32.13	2.77652
32.14	2.77751
32.15	2.74428
32.16	2.74889
32.17	2.75908
32.18	2.74329
32.19	2.76402
32.2	2.76961
32.21	2.7479
32.22	2.7502
32.23	2.7604
32.24	2.77126
32.25	2.75876
32.26	2.76468
32.27	2.77487
32.28	2.77784
32.29	2.7581
32.3	2.75612
32.31	2.74001
32.32	2.77685
32.33	2.75119
32.34	2.74329
32.35	2.76205
32.36	2.77159
32.37	2.76205
32.38	2.75974
32.39	2.76369
32.4	2.75382
32.41	2.76665
32.42	2.7479
32.43	2.75349
32.44	2.75678
32.45	2.7683
32.46	2.77784
32.47	2.77126
32.48	2.76961
32.49	2.77882
32.5	2.76369
32.51	2.77126
32.52	2.7706
32.53	2.74033
32.54	2.74691
32.55	2.72915
32.56	2.72553
32.57	2.76106
32.58	2.7581
32.59	2.7683
32.6	2.76303
32.61	2.77487
32.62	2.7627
32.63	2.77652
32.64	2.75941
32.65	2.76435
32.66	2.76895
32.67	2.80251
32.68	2.8058
32.69	2.7729
32.7	2.77257
32.71	2.78343
32.72	2.75645
32.73	2.75678
32.74	2.76764
32.75	2.76534
32.76	2.77981
32.77	2.75316
32.78	2.74757
32.79	2.77718
32.8	2.78474
32.81	2.78277
32.82	2.78047
32.83	2.78738
32.84	2.74757
32.85	2.75908
32.86	2.78935
32.87	2.77159
32.88	2.79428
32.89	2.7979
32.9	2.75481
32.91	2.79593
32.92	2.76895
32.93	2.75316
32.94	2.75876
32.95	2.76336
32.96	2.79724
32.97	2.77751
32.98	2.75777
32.99	2.80547
33	2.76764
33.01	2.78244
33.02	2.76435
33.03	2.74066
33.04	2.75481
33.05	2.74823
33.06	2.76237
33.07	2.78639
33.08	2.78869
33.09	2.77915
33.1	2.75974
33.11	2.74757
33.12	2.75777
33.13	2.76764
33.14	2.7627
33.15	2.74823
33.16	2.74428
33.17	2.77685
33.18	2.78507
33.19	2.80942
33.2	2.77784
33.21	2.73606
33.22	2.75777
33.23	2.77553
33.24	2.74626
33.25	2.75349
33.26	2.76731
33.27	2.76731
33.28	2.76731
33.29	2.78836
33.3	2.75415
33.31	2.75382
33.32	2.79395
33.33	2.78409
33.34	2.80382
33.35	2.80909
33.36	2.79494
33.37	2.77619
33.38	2.77751
33.39	2.7604
33.4	2.75316
33.41	2.74461
33.42	2.76205
33.43	2.7706
33.44	2.77553
33.45	2.78606
33.46	2.7831
33.47	2.77389
33.48	2.77224
33.49	2.76566
33.5	2.78277
33.51	2.76369
33.52	2.78343
33.53	2.77619
33.54	2.78409
33.55	2.75053
33.56	2.75678
33.57	2.74691
33.58	2.74626
33.59	2.72882
33.6	2.74231
33.61	2.7604
33.62	2.73606
33.63	2.77718
33.64	2.75678
33.65	2.76369
33.66	2.7604
33.67	2.74955
33.68	2.7808
33.69	2.77915
33.7	2.76599
33.71	2.7479
33.72	2.76303
33.73	2.74165
33.74	2.76862
33.75	2.75185
33.76	2.74362
33.77	2.77981
33.78	2.77849
33.79	2.74626
33.8	2.7604
33.81	2.76435
33.82	2.7877
33.83	2.77849
33.84	2.77751
33.85	2.7683
33.86	2.77948
33.87	2.76994
33.88	2.72816
33.89	2.75086
33.9	2.77389
33.91	2.75645
33.92	2.8002
33.93	2.76994
33.94	2.73408
33.95	2.75251
33.96	2.78376
33.97	2.76237
33.98	2.74231
33.99	2.77816
34	2.76402
34.01	2.76501
34.02	2.76928
34.03	2.74362
34.04	2.74066
34.05	2.76862
34.06	2.77323
34.07	2.73047
34.08	2.74001
34.09	2.75974
34.1	2.77553
34.11	2.76764
34.12	2.76369
34.13	2.76073
34.14	2.76994
34.15	2.7683
34.16	2.75711
34.17	2.75876
34.18	2.80349
34.19	2.77685
34.2	2.73968
34.21	2.75645
34.22	2.71698
34.23	2.72487
34.24	2.72948
34.25	2.73968
34.26	2.72422
34.27	2.72487
34.28	2.74593
34.29	2.7627
34.3	2.77784
34.31	2.77685
34.32	2.77159
34.33	2.76534
34.34	2.75514
34.35	2.74395
34.36	2.75777
34.37	2.78211
34.38	2.7377
34.39	2.76468
34.4	2.77224
34.41	2.79659
34.42	2.80218
34.43	2.76205
34.44	2.75514
34.45	2.73112
34.46	2.75645
34.47	2.75547
34.48	2.73803
34.49	2.76402
34.5	2.77455
34.51	2.76862
34.52	2.76336
34.53	2.76237
34.54	2.74461
34.55	2.74264
34.56	2.73441
34.57	2.75053
34.58	2.78935
34.59	2.75415
34.6	2.76402
34.61	2.77257
34.62	2.77784
34.63	2.72553
34.64	2.74198
34.65	2.78573
34.66	2.75251
34.67	2.75053
34.68	2.75744
34.69	2.73112
34.7	2.77191
34.71	2.77356
34.72	2.76994
34.73	2.71303
34.74	2.73474
34.75	2.77619
34.76	2.75678
34.77	2.75251
34.78	2.74889
34.79	2.74165
34.8	2.77224
34.81	2.74658
34.82	2.74494
34.83	2.73672
34.84	2.76073
34.85	2.77455
34.86	2.75547
34.87	2.7502
34.88	2.77586
34.89	2.78738
34.9	2.74395
34.91	2.74922
34.92	2.76435
34.93	2.75974
34.94	2.77389
34.95	2.76435
34.96	2.73902
34.97	2.73112
34.98	2.78803
34.99	2.76895
35	2.77159
35.01	2.7683
35.02	2.75908
35.03	2.76172
35.04	2.78113
35.05	2.76237
35.06	2.74757
35.07	2.75744
35.08	2.75481
35.09	2.74033
35.1	2.76369
35.11	2.74395
35.12	2.75843
35.13	2.74198
35.14	2.76862
35.15	2.77323
35.16	2.78573
35.17	2.72685
35.18	2.73737
35.19	2.75086
35.2	2.74691
35.21	2.76534
35.22	2.78573
35.23	2.71862
35.24	2.74461
35.25	2.73935
35.26	2.73803
35.27	2.7729
35.28	2.75678
35.29	2.74198
35.3	2.72323
35.31	2.76402
35.32	2.74691
35.33	2.76698
35.34	2.75547
35.35	2.76928
35.36	2.76139
35.37	2.73244
35.38	2.75941
35.39	2.75908
35.4	2.76994
35.41	2.7558
35.42	2.72586
35.43	2.76928
35.44	2.76731
35.45	2.74165
35.46	2.74494
35.47	2.76665
35.48	2.7808
35.49	2.74593
35.5	2.74658
35.51	2.75481
35.52	2.74823
35.53	2.75514
35.54	2.75086
35.55	2.75645
35.56	2.75678
35.57	2.7604
35.58	2.76764
35.59	2.75777
35.6	2.77422
35.61	2.76501
35.62	2.74955
35.63	2.76665
35.64	2.77389
35.65	2.75382
35.66	2.75612
35.67	2.7729
35.68	2.77553
35.69	2.76731
35.7	2.74626
35.71	2.77455
35.72	2.78014
35.73	2.77685
35.74	2.79856
35.75	2.79066
35.76	2.76534
35.77	2.76698
35.78	2.76501
35.79	2.74001
35.8	2.75678
35.81	2.75514
35.82	2.77027
35.83	2.76007
35.84	2.78277
35.85	2.75448
35.86	2.75218
35.87	2.74593
35.88	2.75612
35.89	2.75744
35.9	2.7558
35.91	2.73606
35.92	2.73112
35.93	2.76336
35.94	2.77257
35.95	2.75908
35.96	2.77784
35.97	2.74264
35.98	2.77751
35.99	2.78836
36	2.74724
36.01	2.76139
36.02	2.76764
36.03	2.7581
36.04	2.7502
36.05	2.77356
36.06	2.79724
36.07	2.79066
36.08	2.77126
36.09	2.76599
36.1	2.76237
36.11	2.77257
36.12	2.7627
36.13	2.77257
36.14	2.74165
36.15	2.75283
36.16	2.74461
36.17	2.7877
36.18	2.7752
36.19	2.76369
36.2	2.75448
36.21	2.74987
36.22	2.77356
36.23	2.76928
36.24	2.74461
36.25	2.75283
36.26	2.74329
36.27	2.76566
36.28	2.76073
36.29	2.76106
36.3	2.75481
36.31	2.75711
36.32	2.75481
36.33	2.77027
36.34	2.79198
36.35	2.75744
36.36	2.76007
36.37	2.77224
36.38	2.77455
36.39	2.74362
36.4	2.76928
36.41	2.76435
36.42	2.76172
36.43	2.77784
36.44	2.77455
36.45	2.7581
36.46	2.74461
36.47	2.76402
36.48	2.74428
36.49	2.77422
36.5	2.77422
36.51	2.80218
36.52	2.7979
36.53	2.73408
36.54	2.77126
36.55	2.76698
36.56	2.76501
36.57	2.76369
36.58	2.77652
36.59	2.77685
36.6	2.73935
36.61	2.73112
36.62	2.74329
36.63	2.73606
36.64	2.74132
36.65	2.7558
36.66	2.75152
36.67	2.77455
36.68	2.7933
36.69	2.79692
36.7	2.78639
36.71	2.75876
36.72	2.76731
36.73	2.75744
36.74	2.76336
36.75	2.79724
36.76	2.77652
36.77	2.76731
36.78	2.77257
36.79	2.79527
36.8	2.7706
36.81	2.76599
36.82	2.78178
36.83	2.74922
36.84	2.75876
36.85	2.76139
36.86	2.78178
36.87	2.78014
36.88	2.74099
36.89	2.77093
36.9	2.76599
36.91	2.74658
36.92	2.73474
36.93	2.7706
36.94	2.76468
36.95	2.73639
36.96	2.75547
36.97	2.78935
36.98	2.76862
36.99	2.73047
37	2.7354
37.01	2.74198
37.02	2.75744
37.03	2.75448
37.04	2.76402
37.05	2.76928
37.06	2.77586
37.07	2.77948
37.08	2.77356
37.09	2.76172
37.1	2.76369
37.11	2.78343
37.12	2.79955
37.13	2.80744
37.14	2.74889
37.15	2.75448
37.16	2.77816
37.17	2.76698
37.18	2.73836
37.19	2.75448
37.2	2.77093
37.21	2.77586
37.22	2.75218
37.23	2.78672
37.24	2.78836
37.25	2.76862
37.26	2.76566
37.27	2.74165
37.28	2.79231
37.29	2.79527
37.3	2.77619
37.31	2.74395
37.32	2.78113
37.33	2.76205
37.34	2.76764
37.35	2.76501
37.36	2.74823
37.37	2.7206
37.38	2.7706
37.39	2.7354
37.4	2.75514
37.41	2.80481
37.42	2.77882
37.43	2.76994
37.44	2.76073
37.45	2.73211
37.46	2.77126
37.47	2.75185
37.48	2.76534
37.49	2.81139
37.5	2.79659
37.51	2.73704
37.52	2.76303
37.53	2.7729
37.54	2.77816
37.55	2.78705
37.56	2.76303
37.57	2.75744
37.58	2.78902
37.59	2.79034
37.6	2.78145
37.61	2.76895
37.62	2.78145
37.63	2.79363
37.64	2.81731
37.65	2.78178
37.66	2.76698
37.67	2.7558
37.68	2.78507
37.69	2.80942
37.7	2.75941
37.71	2.75908
37.72	2.76797
37.73	2.7854
37.74	2.76599
37.75	2.75382
37.76	2.77619
37.77	2.74527
37.78	2.78178
37.79	2.77422
37.8	2.72948
37.81	2.72981
37.82	2.73869
37.83	2.74626
37.84	2.77093
37.85	2.76336
37.86	2.74132
37.87	2.76237
37.88	2.76073
37.89	2.76402
37.9	2.76139
37.91	2.76172
37.92	2.79198
37.93	2.77093
37.94	2.76797
37.95	2.77816
37.96	2.77126
37.97	2.78474
37.98	2.77224
37.99	2.75514
38	2.7354
38.01	2.73343
38.02	2.79757
38.03	2.7752
38.04	2.79659
38.05	2.73178
38.06	2.76106
38.07	2.78145
38.08	2.75349
38.09	2.73836
38.1	2.75415
38.11	2.78047
38.12	2.75711
38.13	2.75185
38.14	2.77027
38.15	2.80185
38.16	2.77948
38.17	2.78211
38.18	2.77619
38.19	2.77553
38.2	2.77915
38.21	2.78836
38.22	2.7706
38.23	2.75481
38.24	2.78639
38.25	2.76007
38.26	2.74066
38.27	2.78376
38.28	2.77422
38.29	2.74856
38.3	2.74757
38.31	2.75415
38.32	2.76632
38.33	2.76468
38.34	2.76172
38.35	2.78738
38.36	2.79034
38.37	2.77586
38.38	2.77718
38.39	2.77751
38.4	2.7558
38.41	2.76862
38.42	2.75843
38.43	2.73737
38.44	2.76073
38.45	2.74231
38.46	2.79066
38.47	2.77487
38.48	2.74494
38.49	2.77652
38.5	2.75349
38.51	2.75876
38.52	2.76764
38.53	2.75251
38.54	2.75218
38.55	2.77784
38.56	2.78178
38.57	2.76007
38.58	2.76402
38.59	2.71928
38.6	2.75119
38.61	2.76106
38.62	2.76961
38.63	2.73573
38.64	2.74856
38.65	2.78738
38.66	2.76698
38.67	2.78145
38.68	2.76501
38.69	2.74823
38.7	2.75612
38.71	2.77685
38.72	2.77422
38.73	2.7877
38.74	2.76895
38.75	2.76665
38.76	2.76369
38.77	2.76961
38.78	2.77553
38.79	2.77487
38.8	2.77915
38.81	2.75908
38.82	2.76534
38.83	2.77455
38.84	2.76073
38.85	2.7831
38.86	2.75678
38.87	2.76764
38.88	2.75481
38.89	2.72356
38.9	2.77257
38.91	2.77159
38.92	2.75678
38.93	2.80053
38.94	2.77487
38.95	2.7558
38.96	2.80119
38.97	2.76731
38.98	2.77718
38.99	2.75941
39	2.74494
39.01	2.75349
39.02	2.79461
39.03	2.80218
39.04	2.79659
39.05	2.74691
39.06	2.74198
39.07	2.76797
39.08	2.7729
39.09	2.75185
39.1	2.78244
39.11	2.77784
39.12	2.78113
39.13	2.78409
39.14	2.79757
39.15	2.74461
39.16	2.77652
39.17	2.79395
39.18	2.75678
39.19	2.76303
39.2	2.72356
39.21	2.77487
39.22	2.77027
39.23	2.72586
39.24	2.71994
39.25	2.76172
39.26	2.78441
39.27	2.7502
39.28	2.7627
39.29	2.77159
39.3	2.76698
39.31	2.75876
39.32	2.77323
39.33	2.74889
39.34	2.75283
39.35	2.76665
39.36	2.75382
39.37	2.75448
39.38	2.78968
39.39	2.77191
39.4	2.77224
39.41	2.7604
39.42	2.75218
39.43	2.73639
39.44	2.73211
39.45	2.7229
39.46	2.74889
39.47	2.77323
39.48	2.77685
39.49	2.78376
39.5	2.77422
39.51	2.76665
39.52	2.77224
39.53	2.77718
39.54	2.72915
39.55	2.74856
39.56	2.74658
39.57	2.75481
39.58	2.78935
39.59	2.76764
39.6	2.75185
39.61	2.77718
39.62	2.79856
39.63	2.76764
39.64	2.7275
39.65	2.78178
39.66	2.77981
39.67	2.75481
39.68	2.73145
39.69	2.75514
39.7	2.77586
39.71	2.76073
39.72	2.75053
39.73	2.78277
39.74	2.76369
39.75	2.74691
39.76	2.74823
39.77	2.79198
39.78	2.7877
39.79	2.77816
39.8	2.77027
39.81	2.76764
39.82	2.78474
39.83	2.76632
39.84	2.77455
39.85	2.76369
39.86	2.74527
39.87	2.73935
39.88	2.76731
39.89	2.7581
39.9	2.7956
39.91	2.78113
39.92	2.80086
39.93	2.79297
39.94	2.7729
39.95	2.75283
39.96	2.76797
39.97	2.7933
39.98	2.79692
39.99	2.80284
40	2.76665
40.01	2.78672
40.02	2.75382
40.03	2.73935
40.04	2.72849
40.05	2.73704
40.06	2.74132
40.07	2.7502
40.08	2.76205
40.09	2.77323
40.1	2.77487
40.11	2.76994
40.12	2.77191
40.13	2.76369
40.14	2.73737
40.15	2.75086
40.16	2.77356
40.17	2.78968
40.18	2.79198
40.19	2.78113
40.2	2.78178
40.21	2.76073
40.22	2.74231
40.23	2.74362
40.24	2.74001
40.25	2.77422
40.26	2.75908
40.27	2.76435
40.28	2.74856
40.29	2.7808
40.3	2.77948
40.31	2.78244
40.32	2.7729
40.33	2.78244
40.34	2.77487
40.35	2.75612
40.36	2.74757
40.37	2.78573
40.38	2.7854
40.39	2.7479
40.4	2.76599
40.41	2.7604
40.42	2.74132
40.43	2.7706
40.44	2.79132
40.45	2.7956
40.46	2.7877
40.47	2.7354
40.48	2.75744
40.49	2.76599
40.5	2.7808
40.51	2.78507
40.52	2.78343
40.53	2.77257
40.54	2.76797
40.55	2.7706
40.56	2.76106
40.57	2.76862
40.58	2.77257
40.59	2.77553
40.6	2.74955
40.61	2.75843
40.62	2.77718
40.63	2.79066
40.64	2.74658
40.65	2.72454
40.66	2.74922
40.67	2.75086
40.68	2.74987
40.69	2.75316
40.7	2.7729
40.71	2.75876
40.72	2.74987
40.73	2.74001
40.74	2.74494
40.75	2.74198
40.76	2.77784
40.77	2.76172
40.78	2.74955
40.79	2.80086
40.8	2.76007
40.81	2.77422
40.82	2.77784
40.83	2.77652
40.84	2.75777
40.85	2.79001
40.86	2.76862
40.87	2.76139
40.88	2.79494
40.89	2.77718
40.9	2.77816
40.91	2.75218
40.92	2.7752
40.93	2.76007
40.94	2.73145
40.95	2.73112
40.96	2.73507
40.97	2.76698
40.98	2.76797
40.99	2.74395
41	2.73507
41.01	2.75678
41.02	2.74922
41.03	2.76336
41.04	2.76928
41.05	2.77816
41.06	2.7558
41.07	2.76599
41.08	2.77093
41.09	2.79856
41.1	2.76402
41.11	2.74329
41.12	2.75316
41.13	2.75251
41.14	2.75349
41.15	2.75251
41.16	2.76599
41.17	2.74856
41.18	2.76698
41.19	2.76435
41.2	2.7854
41.21	2.78376
41.22	2.76435
41.23	2.80251
41.24	2.7808
41.25	2.78705
41.26	2.78606
41.27	2.77685
41.28	2.76501
41.29	2.75152
41.3	2.75152
41.31	2.76862
41.32	2.73606
41.33	2.74889
41.34	2.75908
41.35	2.75974
41.36	2.74428
41.37	2.76205
41.38	2.78474
41.39	2.73836
41.4	2.75283
41.41	2.76435
41.42	2.73869
41.43	2.74395
41.44	2.79132
41.45	2.76139
41.46	2.78047
41.47	2.75185
41.48	2.79297
41.49	2.75908
41.5	2.7502
41.51	2.76369
41.52	2.76402
41.53	2.77849
41.54	2.79132
41.55	2.79231
41.56	2.76961
41.57	2.73902
41.58	2.74033
41.59	2.80448
41.6	2.78343
41.61	2.7706
41.62	2.76566
41.63	2.76402
41.64	2.75053
41.65	2.74099
41.66	2.75547
41.67	2.75514
41.68	2.76205
41.69	2.75711
41.7	2.76632
41.71	2.73047
41.72	2.75481
41.73	2.7979
41.74	2.76336
41.75	2.72783
41.76	2.72915
41.77	2.79395
41.78	2.75514
41.79	2.7729
41.8	2.74494
41.81	2.7729
41.82	2.77126
41.83	2.7854
41.84	2.77389
41.85	2.78145
41.86	2.78376
41.87	2.74955
41.88	2.78672
41.89	2.78409
41.9	2.73935
41.91	2.74395
41.92	2.74362
41.93	2.76172
41.94	2.75382
41.95	2.72882
41.96	2.77751
41.97	2.77619
41.98	2.73606
41.99	2.76007
42	2.74593
42.01	2.71632
42.02	2.75612
42.03	2.75711
42.04	2.76237
42.05	2.73606
42.06	2.76468
42.07	2.7808
42.08	2.76566
42.09	2.7604
42.1	2.78573
42.11	2.76731
42.12	2.76797
42.13	2.77586
42.14	2.74955
42.15	2.74593
42.16	2.7627
42.17	2.74395
42.18	2.74329
42.19	2.79428
42.2	2.78902
42.21	2.73672
42.22	2.73704
42.23	2.75152
42.24	2.76501
42.25	2.77685
42.26	2.78606
42.27	2.76797
42.28	2.77356
42.29	2.74987
42.3	2.76139
42.31	2.75316
42.32	2.7502
42.33	2.74461
42.34	2.78244
42.35	2.7683
42.36	2.74593
42.37	2.75382
42.38	2.73178
42.39	2.76566
42.4	2.75711
42.41	2.76205
42.42	2.77257
42.43	2.78409
42.44	2.74889
42.45	2.76534
42.46	2.76237
42.47	2.78244
42.48	2.80876
42.49	2.76731
42.5	2.73606
42.51	2.77553
42.52	2.7956
42.53	2.76566
42.54	2.75382
42.55	2.75908
42.56	2.75645
42.57	2.74033
42.58	2.77389
42.59	2.77159
42.6	2.75678
42.61	2.77159
42.62	2.76237
42.63	2.76402
42.64	2.73277
42.65	2.74955
42.66	2.7558
42.67	2.76106
42.68	2.77652
42.69	2.77356
42.7	2.74955
42.71	2.75415
42.72	2.70514
42.73	2.7627
42.74	2.78047
42.75	2.74527
42.76	2.72224
42.77	2.74922
42.78	2.76928
42.79	2.74329
42.8	2.76961
42.81	2.75415
42.82	2.71632
42.83	2.76566
42.84	2.76435
42.85	2.76106
42.86	2.77816
42.87	2.76895
42.88	2.78705
42.89	2.78441
42.9	2.74329
42.91	2.74691
42.92	2.75053
42.93	2.75316
42.94	2.77356
42.95	2.78705
42.96	2.79692
42.97	2.79823
42.98	2.79823
42.99	2.7683
43	2.77487
43.01	2.75382
43.02	2.7729
43.03	2.77981
43.04	2.75547
43.05	2.74395
43.06	2.73704
43.07	2.74955
43.08	2.73211
43.09	2.73014
43.1	2.73474
43.11	2.74461
43.12	2.76237
43.13	2.7479
43.14	2.76632
43.15	2.75678
43.16	2.77816
43.17	2.78244
43.18	2.75218
43.19	2.75053
43.2	2.78145
43.21	2.76928
43.22	2.74494
43.23	2.73869
43.24	2.74527
43.25	2.78343
43.26	2.76632
43.27	2.77323
43.28	2.7456
43.29	2.7479
43.3	2.75843
43.31	2.75711
43.32	2.76895
43.33	2.79034
43.34	2.74001
43.35	2.74757
43.36	2.76764
43.37	2.79494
43.38	2.77027
43.39	2.74395
43.4	2.75645
43.41	2.76073
43.42	2.75777
43.43	2.75119
43.44	2.77422
43.45	2.77718
43.46	2.78738
43.47	2.79297
43.48	2.78573
43.49	2.7729
43.5	2.7627
43.51	2.75218
43.52	2.75711
43.53	2.75119
43.54	2.79461
43.55	2.77422
43.56	2.7354
43.57	2.73672
43.58	2.77948
43.59	2.77652
43.6	2.72454
43.61	2.73376
43.62	2.75119
43.63	2.81501
43.64	2.77718
43.65	2.76237
43.66	2.74362
43.67	2.78935
43.68	2.73935
43.69	2.74922
43.7	2.77718
43.71	2.77685
43.72	2.7502
43.73	2.73014
43.74	2.73968
43.75	2.73606
43.76	2.79132
43.77	2.78672
43.78	2.79066
43.79	2.74165
43.8	2.75316
43.81	2.75349
43.82	2.75974
43.83	2.74165
43.84	2.75974
43.85	2.78113
43.86	2.76303
43.87	2.72981
43.88	2.77126
43.89	2.76665
43.9	2.74231
43.91	2.75415
43.92	2.74494
43.93	2.77948
43.94	2.76106
43.95	2.76599
43.96	2.74132
43.97	2.75481
43.98	2.76862
43.99	2.75053
44	2.75086
44.01	2.76402
44.02	2.74099
44.03	2.74132
44.04	2.79823
44.05	2.80251
44.06	2.77191
44.07	2.76534
44.08	2.76402
44.09	2.76336
44.1	2.75448
44.11	2.74658
44.12	2.77981
44.13	2.75415
44.14	2.79757
44.15	2.76237
44.16	2.77126
44.17	2.78211
44.18	2.75514
44.19	2.76665
44.2	2.78672
44.21	2.76336
44.22	2.76764
44.23	2.74264
44.24	2.7502
44.25	2.80415
44.26	2.75514
44.27	2.77586
44.28	2.76205
44.29	2.78836
44.3	2.7627
44.31	2.74658
44.32	2.74198
44.33	2.7627
44.34	2.78047
44.35	2.76534
44.36	2.77586
44.37	2.77586
44.38	2.75481
44.39	2.7502
44.4	2.76961
44.41	2.74856
44.42	2.75481
44.43	2.7854
44.44	2.78573
44.45	2.76369
44.46	2.77422
44.47	2.75251
44.48	2.76402
44.49	2.75481
44.5	2.77784
44.51	2.77389
44.52	2.77751
44.53	2.72685
44.54	2.74297
44.55	2.7604
44.56	2.76303
44.57	2.78672
44.58	2.75448
44.59	2.75415
44.6	2.73737
44.61	2.74527
44.62	2.7252
44.63	2.72718
44.64	2.7558
44.65	2.74001
44.66	2.75415
44.67	2.74165
44.68	2.75876
44.69	2.75645
44.7	2.74724
44.71	2.77849
44.72	2.74823
44.73	2.73376
44.74	2.74264
44.75	2.76665
44.76	2.75974
44.77	2.74757
44.78	2.78376
44.79	2.75382
44.8	2.77685
44.81	2.74922
44.82	2.73408
44.83	2.73408
44.84	2.73902
44.85	2.7683
44.86	2.76566
44.87	2.78343
44.88	2.75152
44.89	2.78014
44.9	2.77751
44.91	2.77027
44.92	2.70415
44.93	2.75251
44.94	2.76303
44.95	2.77487
44.96	2.76731
44.97	2.78277
44.98	2.77356
44.99	2.73277
45	2.74198
45.01	2.73968
45.02	2.75843
45.03	2.74856
45.04	2.75448
45.05	2.7683
45.06	2.78507
45.07	2.76731
45.08	2.74856
45.09	2.77159
45.1	2.75711
45.11	2.76928
45.12	2.8058
45.13	2.77718
45.14	2.72816
45.15	2.75843
45.16	2.73376
45.17	2.76862
45.18	2.75777
45.19	2.72125
45.2	2.75547
45.21	2.78047
45.22	2.7808
45.23	2.75349
45.24	2.7877
45.25	2.76336
45.26	2.78968
45.27	2.7683
45.28	2.76369
45.29	2.75645
45.3	2.75777
45.31	2.76468
45.32	2.77093
45.33	2.78474
45.34	2.76599
45.35	2.7627
45.36	2.76566
45.37	2.79428
45.38	2.76172
45.39	2.75415
45.4	2.7752
45.41	2.72981
45.42	2.73441
45.43	2.76961
45.44	2.74626
45.45	2.75777
45.46	2.78935
45.47	2.75843
45.48	2.74626
45.49	2.70053
45.5	2.72981
45.51	2.77751
45.52	2.7683
45.53	2.76534
45.54	2.75711
45.55	2.75382
45.56	2.75612
45.57	2.80613
45.58	2.76566
45.59	2.7933
45.6	2.77784
45.61	2.76665
45.62	2.77191
45.63	2.72981
45.64	2.75316
45.65	2.77981
45.66	2.73047
45.67	2.75251
45.68	2.76139
45.69	2.76073
45.7	2.75448
45.71	2.77948
45.72	2.77356
45.73	2.78705
45.74	2.75086
45.75	2.7581
45.76	2.76139
45.77	2.74231
45.78	2.7752
45.79	2.76797
45.8	2.78277
45.81	2.75448
45.82	2.73606
45.83	2.77652
45.84	2.7706
45.85	2.76566
45.86	2.76139
45.87	2.76599
45.88	2.76237
45.89	2.7581
45.9	2.7354
45.91	2.74856
45.92	2.73672
45.93	2.73244
45.94	2.77619
45.95	2.77159
45.96	2.77784
45.97	2.77027
45.98	2.76172
45.99	2.73836
46	2.75185
46.01	2.7581
46.02	2.75218
46.03	2.80317
46.04	2.78047
46.05	2.75974
46.06	2.76961
46.07	2.76797
46.08	2.76007
46.09	2.75876
46.1	2.74724
46.11	2.76468
46.12	2.75086
46.13	2.77224
46.14	2.78014
46.15	2.76369
46.16	2.74922
46.17	2.76797
46.18	2.74757
46.19	2.74724
46.2	2.75218
46.21	2.74362
46.22	2.74099
46.23	2.77487
46.24	2.73112
46.25	2.7377
46.26	2.7502
46.27	2.74132
46.28	2.76336
46.29	2.75612
46.3	2.76599
46.31	2.7581
46.32	2.76698
46.33	2.75481
46.34	2.75349
46.35	2.7502
46.36	2.77586
46.37	2.77652
46.38	2.77553
46.39	2.76862
46.4	2.78606
46.41	2.77455
46.42	2.74264
46.43	2.75612
46.44	2.72849
46.45	2.74527
46.46	2.75777
46.47	2.76237
46.48	2.72652
46.49	2.77093
46.5	2.75612
46.51	2.76698
46.52	2.7331
46.53	2.73935
46.54	2.76435
46.55	2.76599
46.56	2.76007
46.57	2.75152
46.58	2.76007
46.59	2.76698
46.6	2.76435
46.61	2.77816
46.62	2.77389
46.63	2.78935
46.64	2.75744
46.65	2.75514
46.66	2.72882
46.67	2.75974
46.68	2.76205
46.69	2.76435
46.7	2.76402
46.71	2.74198
46.72	2.74198
46.73	2.74527
46.74	2.76369
46.75	2.76139
46.76	2.76764
46.77	2.76599
46.78	2.78474
46.79	2.77455
46.8	2.77323
46.81	2.74066
46.82	2.73968
46.83	2.78343
46.84	2.74593
46.85	2.73376
46.86	2.75645
46.87	2.76402
46.88	2.75053
46.89	2.76698
46.9	2.74198
46.91	2.7456
46.92	2.75514
46.93	2.78836
46.94	2.79165
46.95	2.75283
46.96	2.75448
46.97	2.78836
46.98	2.75481
46.99	2.74395
47	2.75152
47.01	2.76468
47.02	2.74757
47.03	2.77422
47.04	2.77093
47.05	2.75941
47.06	2.76994
47.07	2.78474
47.08	2.77455
47.09	2.76534
47.1	2.76237
47.11	2.76237
47.12	2.74724
47.13	2.77323
47.14	2.77619
47.15	2.76172
47.16	2.78705
47.17	2.75941
47.18	2.76764
47.19	2.77619
47.2	2.76303
47.21	2.73803
47.22	2.74033
47.23	2.75744
47.24	2.78113
47.25	2.7558
47.26	2.78507
47.27	2.74626
47.28	2.74001
47.29	2.76435
47.3	2.75547
47.31	2.74724
47.32	2.76106
47.33	2.76237
47.34	2.71303
47.35	2.75251
47.36	2.75711
47.37	2.76336
47.38	2.78935
47.39	2.75349
47.4	2.73672
47.41	2.76698
47.42	2.74132
47.43	2.78376
47.44	2.78639
47.45	2.74658
47.46	2.74658
47.47	2.76665
47.48	2.76402
47.49	2.7683
47.5	2.76797
47.51	2.75316
47.52	2.77586
47.53	2.78606
47.54	2.74297
47.55	2.7479
47.56	2.7706
47.57	2.75481
47.58	2.75086
47.59	2.74724
47.6	2.79494
47.61	2.76501
47.62	2.76435
47.63	2.74329
47.64	2.78113
47.65	2.74757
47.66	2.77455
47.67	2.77027
47.68	2.77093
47.69	2.75678
47.7	2.76534
47.71	2.73639
47.72	2.73376
47.73	2.75547
47.74	2.74461
47.75	2.76566
47.76	2.715
47.77	2.77455
47.78	2.7979
47.79	2.75251
47.8	2.7752
47.81	2.75547
47.82	2.71632
47.83	2.72948
47.84	2.72422
47.85	2.74823
47.86	2.77455
47.87	2.75152
47.88	2.74955
47.89	2.7706
47.9	2.77257
47.91	2.72849
47.92	2.73803
47.93	2.76764
47.94	2.77849
47.95	2.75185
47.96	2.75777
47.97	2.73474
47.98	2.74001
47.99	2.72389
48	2.76336
48.01	2.7831
48.02	2.7752
48.03	2.78738
48.04	2.7752
48.05	2.7502
48.06	2.71994
48.07	2.73836
48.08	2.76468
48.09	2.76862
48.1	2.7558
48.11	2.74626
48.12	2.79066
48.13	2.76369
48.14	2.75086
48.15	2.76961
48.16	2.76172
48.17	2.77652
48.18	2.75119
48.19	2.76632
48.2	2.76566
48.21	2.77718
48.22	2.75843
48.23	2.75908
48.24	2.76402
48.25	2.75974
48.26	2.76435
48.27	2.74823
48.28	2.76698
48.29	2.7683
48.3	2.75908
48.31	2.77915
48.32	2.75481
48.33	2.76139
48.34	2.7456
48.35	2.75612
48.36	2.73014
48.37	2.78014
48.38	2.76336
48.39	2.74955
48.4	2.73968
48.41	2.76106
48.42	2.78145
48.43	2.74461
48.44	2.75382
48.45	2.74856
48.46	2.73079
48.47	2.75645
48.48	2.73639
48.49	2.75612
48.5	2.7581
48.51	2.75382
48.52	2.74593
48.53	2.76698
48.54	2.76797
48.55	2.76007
48.56	2.75086
48.57	2.76961
48.58	2.7627
48.59	2.76172
48.6	2.7706
48.61	2.74955
48.62	2.79099
48.63	2.74626
48.64	2.76665
48.65	2.75251
48.66	2.74264
48.67	2.74264
48.68	2.74231
48.69	2.75316
48.7	2.77849
48.71	2.77981
48.72	2.76073
48.73	2.76468
48.74	2.76369
48.75	2.73606
48.76	2.77224
48.77	2.74987
48.78	2.74757
48.79	2.77191
48.8	2.7752
48.81	2.75645
48.82	2.74823
48.83	2.76172
48.84	2.73704
48.85	2.76106
48.86	2.75974
48.87	2.73178
48.88	2.78639
48.89	2.7354
48.9	2.74658
48.91	2.76205
48.92	2.74132
48.93	2.77487
48.94	2.76237
48.95	2.77586
48.96	2.76994
48.97	2.76336
48.98	2.76501
48.99	2.77685
49	2.75678
49.01	2.76073
49.02	2.78178
49.03	2.75152
49.04	2.76534
49.05	2.76928
49.06	2.79692
49.07	2.75974
49.08	2.76402
49.09	2.78639
49.1	2.78047
49.11	2.73408
49.12	2.73803
49.13	2.76566
49.14	2.77849
49.15	2.73803
49.16	2.75547
49.17	2.78738
49.18	2.76007
49.19	2.7706
49.2	2.77422
49.21	2.77553
49.22	2.74626
49.23	2.74889
49.24	2.75843
49.25	2.75053
49.26	2.76665
49.27	2.75152
49.28	2.75547
49.29	2.77652
49.3	2.75612
49.31	2.76007
49.32	2.78211
49.33	2.76665
49.34	2.74329
49.35	2.77093
49.36	2.73639
49.37	2.76632
49.38	2.74955
49.39	2.77784
49.4	2.77981
49.41	2.79264
49.42	2.74724
49.43	2.76534
49.44	2.77257
49.45	2.76205
49.46	2.76007
49.47	2.79001
49.48	2.77586
49.49	2.75053
49.5	2.74033
49.51	2.76073
49.52	2.75908
49.53	2.7831
49.54	2.81896
49.55	2.78244
49.56	2.76731
49.57	2.72948
49.58	2.75415
49.59	2.75316
49.6	2.73441
49.61	2.79231
49.62	2.77586
49.63	2.7456
49.64	2.77422
49.65	2.76862
49.66	2.73836
49.67	2.74033
49.68	2.7706
49.69	2.75941
49.7	2.73606
49.71	2.76566
49.72	2.76172
49.73	2.77323
49.74	2.75612
49.75	2.75316
49.76	2.77356
49.77	2.74626
49.78	2.74593
49.79	2.76172
49.8	2.76237
49.81	2.76764
49.82	2.75645
49.83	2.76336
49.84	2.76534
49.85	2.73935
49.86	2.77422
49.87	2.77191
49.88	2.7558
49.89	2.76106
49.9	2.76895
49.91	2.74428
49.92	2.76731
49.93	2.76172
49.94	2.75382
49.95	2.75678
49.96	2.76501
49.97	2.78968
49.98	2.75547
49.99	2.74066
50	2.72487
