"BIO-KINE ASCII FILE"
"_COMMENT"	"MOS-500 Spectrometer"
"_COMMENT"	"Kinetics measurement"
"_COMMENT"	"Y Unit : Volt,  X Unit : s"
"_COMMENT"	"Excitation wavelength : 380 nm"
"_COMMENT"	"Fentes bandwidth =  1 nm"
"_COMMENT"	"HV= 700V"
"_COMMENT"	"Timebase  1 =  .01 s   3001 pts"
"_SFM"	"SFM-400 /S  Advanced mode"
"_SFM"	"Ratio : S1: 2.5, S2: 0, S3: 0, S4: 1"
"_SFM"	"Content : S1: , S2: , S3: , S4:"
"_SFM"	"Concentration : S1: , S2: , S3: , S4:"
"_SFM"	"Total volume : 209 µl  Flow : 3.5 mL/s"
"_SFM"	"Acquisition start :  10 ms before stop"
"_SFM"	"cuve=FC-15, s1=10 ml , s2=10 ml , s3=10 ml , s4=1.9 ml"
"_UNITX"	"s"
"_UNITY"	"Volt"
"_DELTAX"	0
"_DATA"
1e-300	4.34302
0.01	5.24699
0.02	5.7503
0.03	5.84372
0.04	5.81675
0.05	5.823
0.06	5.81938
0.07	5.82004
0.08	5.81971
0.09	5.83023
0.1	5.83616
0.11	5.82102
0.12	5.83977
0.13	5.82925
0.14	5.83616
0.15	5.83254
0.16	5.83319
0.17	5.82629
0.18	5.82497
0.19	5.81905
0.2	5.81708
0.21	5.81708
0.22	5.81938
0.23	5.82925
0.24	5.82069
0.25	5.79931
0.26	5.81313
0.27	5.82563
0.28	5.81115
0.29	5.80655
0.3	5.79602
0.31	5.80721
0.32	5.79898
0.33	5.78681
0.34	5.76938
0.35	5.78813
0.36	5.78319
0.37	5.77859
0.38	5.76773
0.39	5.77135
0.4	5.76971
0.41	5.76773
0.42	5.76806
0.43	5.75852
0.44	5.74832
0.45	5.75951
0.46	5.75424
0.47	5.74799
0.48	5.7401
0.49	5.73286
0.5	5.73451
0.51	5.73385
0.52	5.7299
0.53	5.71247
0.54	5.71641
0.55	5.70984
0.56	5.70523
0.57	5.71148
0.58	5.71378
0.59	5.71247
0.6	5.7026
0.61	5.68451
0.62	5.68747
0.63	5.68516
0.64	5.67727
0.65	5.6753
0.66	5.67266
0.67	5.6753
0.68	5.67628
0.69	5.66082
0.7	5.65852
0.71	5.64799
0.72	5.647
0.73	5.64536
0.74	5.63549
0.75	5.6424
0.76	5.63779
0.77	5.62529
0.78	5.61543
0.79	5.62562
0.8	5.61839
0.81	5.61411
0.82	5.61016
0.83	5.60457
0.84	5.59503
0.85	5.6095
0.86	5.59996
0.87	5.5924
0.88	5.58648
0.89	5.58154
0.9	5.58319
0.91	5.5697
0.92	5.57102
0.93	5.57365
0.94	5.55819
0.95	5.56674
0.96	5.56575
0.97	5.55227
0.98	5.53648
0.99	5.53878
1	5.52792
1.01	5.53023
1.02	5.54009
1.03	5.52726
1.04	5.52233
1.05	5.51542
1.06	5.52069
1.07	5.50358
1.08	5.49996
1.09	5.51049
1.1	5.49437
1.11	5.49865
1.12	5.49865
1.13	5.48286
1.14	5.48121
1.15	5.46674
1.16	5.47299
1.17	5.46674
1.18	5.45818
1.19	5.45489
1.2	5.45785
1.21	5.4572
1.22	5.46246
1.23	5.45062
1.24	5.43417
1.25	5.42595
1.26	5.42825
1.27	5.42989
1.28	5.41213
1.29	5.41048
1.3	5.41476
1.31	5.40391
1.32	5.40325
1.33	5.41016
1.34	5.39634
1.35	5.38318
1.36	5.38713
1.37	5.38417
1.38	5.37167
1.39	5.36706
1.4	5.3664
1.41	5.36871
1.42	5.35588
1.43	5.3493
1.44	5.34864
1.45	5.34272
1.46	5.347
1.47	5.34469
1.48	5.34075
1.49	5.32989
1.5	5.32594
1.51	5.31838
1.52	5.31476
1.53	5.30785
1.54	5.31015
1.55	5.3039
1.56	5.30719
1.57	5.29963
1.58	5.29502
1.59	5.2891
1.6	5.27759
1.61	5.27726
1.62	5.28022
1.63	5.26607
1.64	5.26213
1.65	5.25456
1.66	5.25291
1.67	5.2391
1.68	5.2414
1.69	5.23219
1.7	5.22364
1.71	5.2289
1.72	5.21903
1.73	5.21706
1.74	5.22594
1.75	5.20883
1.76	5.20752
1.77	5.2016
1.78	5.20489
1.79	5.20423
1.8	5.1937
1.81	5.19568
1.82	5.18646
1.83	5.18383
1.84	5.18383
1.85	5.18153
1.86	5.19008
1.87	5.16081
1.88	5.16179
1.89	5.16114
1.9	5.14633
1.91	5.15488
1.92	5.14436
1.93	5.1539
1.94	5.14896
1.95	5.13778
1.96	5.12561
1.97	5.12199
1.98	5.12988
1.99	5.11903
2	5.11311
2.01	5.1085
2.02	5.09699
2.03	5.08876
2.04	5.09173
2.05	5.08449
2.06	5.09173
2.07	5.08515
2.08	5.07824
2.09	5.07857
2.1	5.07199
2.11	5.06672
2.12	5.05817
2.13	5.05126
2.14	5.04304
2.15	5.04863
2.16	5.04139
2.17	5.02626
2.18	5.02791
2.19	5.03284
2.2	5.01837
2.21	5.0085
2.22	5.01837
2.23	5.021
2.24	5.0062
2.25	5.0108
2.26	4.99666
2.27	4.99271
2.28	4.98481
2.29	4.98185
2.3	4.97955
2.31	4.98251
2.32	4.96935
2.33	4.96738
2.34	4.97527
2.35	4.96837
2.36	4.9631
2.37	4.95652
2.38	4.94534
2.39	4.94797
2.4	4.95488
2.41	4.95192
2.42	4.94271
2.43	4.9335
2.44	4.93383
2.45	4.92034
2.46	4.91113
2.47	4.91409
2.48	4.90784
2.49	4.9006
2.5	4.90488
2.51	4.90356
2.52	4.88547
2.53	4.89501
2.54	4.8858
2.55	4.87099
2.56	4.8756
2.57	4.87067
2.58	4.87527
2.59	4.87461
2.6	4.8608
2.61	4.85619
2.62	4.84599
2.63	4.84336
2.64	4.8552
2.65	4.83974
2.66	4.82889
2.67	4.83678
2.68	4.8358
2.69	4.83448
2.7	4.82659
2.71	4.82922
2.72	4.81639
2.73	4.82428
2.74	4.80027
2.75	4.79994
2.76	4.81112
2.77	4.79731
2.78	4.78283
2.79	4.78645
2.8	4.77954
2.81	4.77395
2.82	4.78579
2.83	4.77
2.84	4.7631
2.85	4.77231
2.86	4.75487
2.87	4.7506
2.88	4.74994
2.89	4.75685
2.9	4.75652
2.91	4.74106
2.92	4.73086
2.93	4.73645
2.94	4.71573
2.95	4.71441
2.96	4.72066
2.97	4.71244
2.98	4.70191
2.99	4.70027
3	4.70257
3.01	4.70191
3.02	4.69665
3.03	4.68217
3.04	4.68217
3.05	4.68579
3.06	4.68546
3.07	4.68842
3.08	4.66803
3.09	4.66342
3.1	4.65224
3.11	4.66013
3.12	4.645
3.13	4.64007
3.14	4.64401
3.15	4.63743
3.16	4.62921
3.17	4.63678
3.18	4.63053
3.19	4.61967
3.2	4.61934
3.21	4.60487
3.22	4.5927
3.23	4.61046
3.24	4.59895
3.25	4.59664
3.26	4.59072
3.27	4.59599
3.28	4.59664
3.29	4.57164
3.3	4.58809
3.31	4.57428
3.32	4.57099
3.33	4.57625
3.34	4.56967
3.35	4.56737
3.36	4.56638
3.37	4.56112
3.38	4.54533
3.39	4.54105
3.4	4.53809
3.41	4.54204
3.42	4.53644
3.43	4.53612
3.44	4.52921
3.45	4.53019
3.46	4.52197
3.47	4.5098
3.48	4.51737
3.49	4.51144
3.5	4.51638
3.51	4.50783
3.52	4.5121
3.53	4.5019
3.54	4.49631
3.55	4.49105
3.56	4.4825
3.57	4.48315
3.58	4.47855
3.59	4.47361
3.6	4.46473
3.61	4.46506
3.62	4.47065
3.63	4.45585
3.64	4.46671
3.65	4.46144
3.66	4.45947
3.67	4.45289
3.68	4.44072
3.69	4.44664
3.7	4.43874
3.71	4.42756
3.72	4.42559
3.73	4.42164
3.74	4.42263
3.75	4.41802
3.76	4.40585
3.77	4.41736
3.78	4.41013
3.79	4.40618
3.8	4.39697
3.81	4.3996
3.82	4.39302
3.83	4.37822
3.84	4.37789
3.85	4.38085
3.86	4.37953
3.87	4.38512
3.88	4.37295
3.89	4.36374
3.9	4.36374
3.91	4.35453
3.92	4.37098
3.93	4.35157
3.94	4.35223
3.95	4.35223
3.96	4.34664
3.97	4.34104
3.98	4.3394
3.99	4.32756
4	4.32065
4.01	4.32789
4.02	4.32789
4.03	4.32164
4.04	4.31407
4.05	4.31506
4.06	4.31144
4.07	4.31177
4.08	4.31045
4.09	4.30848
4.1	4.29433
4.11	4.28973
4.12	4.29006
4.13	4.28446
4.14	4.28282
4.15	4.28019
4.16	4.27394
4.17	4.26769
4.18	4.27262
4.19	4.27098
4.2	4.269
4.21	4.25979
4.22	4.26045
4.23	4.25453
4.24	4.23512
4.25	4.25025
4.26	4.24861
4.27	4.23841
4.28	4.23841
4.29	4.24203
4.3	4.23512
4.31	4.21736
4.32	4.21637
4.33	4.22459
4.34	4.21176
4.35	4.21045
4.36	4.20584
4.37	4.20979
4.38	4.21637
4.39	4.2042
4.4	4.19762
4.41	4.20288
4.42	4.20222
4.43	4.19532
4.44	4.18808
4.45	4.17985
4.46	4.17525
4.47	4.17657
4.48	4.18347
4.49	4.18018
4.5	4.16735
4.51	4.17031
4.52	4.16801
4.53	4.17064
4.54	4.16604
4.55	4.16078
4.56	4.1486
4.57	4.13906
4.58	4.15321
4.59	4.14005
4.6	4.14597
4.61	4.14795
4.62	4.12755
4.63	4.13117
4.64	4.12821
4.65	4.12821
4.66	4.1236
4.67	4.12558
4.68	4.11867
4.69	4.11768
4.7	4.11406
4.71	4.10584
4.72	4.09564
4.73	4.09433
4.74	4.09367
4.75	4.09498
4.76	4.09268
4.77	4.08972
4.78	4.08117
4.79	4.08413
4.8	4.08084
4.81	4.08051
4.82	4.07459
4.83	4.08117
4.84	4.0713
4.85	4.06011
4.86	4.06373
4.87	4.05814
4.88	4.06143
4.89	4.05189
4.9	4.05386
4.91	4.0486
4.92	4.03939
4.93	4.03807
4.94	4.04794
4.95	4.04136
4.96	4.03084
4.97	4.03248
4.98	4.02557
4.99	4.01768
5	4.02492
5.01	4.03149
5.02	4.01932
5.03	4.01834
5.04	4.01274
5.05	4.00551
5.06	3.99597
5.07	4.0032
5.08	3.99268
5.09	3.99235
5.1	3.97787
5.11	3.9838
5.12	3.9861
5.13	3.9838
5.14	3.97656
5.15	3.98084
5.16	3.96537
5.17	3.96143
5.18	3.97064
5.19	3.97064
5.2	3.96801
5.21	3.96208
5.22	3.95847
5.23	3.95978
5.24	3.95912
5.25	3.95748
5.26	3.95287
5.27	3.94202
5.28	3.94136
5.29	3.94202
5.3	3.94827
5.31	3.93347
5.32	3.93939
5.33	3.93412
5.34	3.93248
5.35	3.92623
5.36	3.91307
5.37	3.90846
5.38	3.92261
5.39	3.91636
5.4	3.91241
5.41	3.91471
5.42	3.91208
5.43	3.91537
5.44	3.90649
5.45	3.90287
5.46	3.90156
5.47	3.90485
5.48	3.89531
5.49	3.89333
5.5	3.88412
5.51	3.8782
5.52	3.8782
5.53	3.88642
5.54	3.87623
5.55	3.8759
5.56	3.87359
5.57	3.86044
5.58	3.88083
5.59	3.868
5.6	3.86471
5.61	3.86109
5.62	3.85517
5.63	3.84498
5.64	3.84596
5.65	3.84958
5.66	3.84267
5.67	3.84201
5.68	3.83544
5.69	3.84596
5.7	3.83971
5.71	3.82524
5.72	3.8203
5.73	3.83083
5.74	3.82951
5.75	3.82951
5.76	3.81734
5.77	3.80912
5.78	3.80418
5.79	3.80978
5.8	3.80583
5.81	3.80254
5.82	3.79761
5.83	3.79465
5.84	3.7907
5.85	3.79629
5.86	3.79958
5.87	3.78905
5.88	3.79136
5.89	3.78872
5.9	3.78543
5.91	3.77918
5.92	3.77557
5.93	3.77754
5.94	3.7782
5.95	3.77589
5.96	3.7782
5.97	3.77129
5.98	3.76734
5.99	3.76964
6	3.76635
6.01	3.75846
6.02	3.76471
6.03	3.76241
6.04	3.75912
6.05	3.74464
6.06	3.7476
6.07	3.7476
6.08	3.73214
6.09	3.74695
6.1	3.74135
6.11	3.73313
6.12	3.73774
6.13	3.72589
6.14	3.73313
6.15	3.73675
6.16	3.73313
6.17	3.7305
6.18	3.72655
6.19	3.7305
6.2	3.72523
6.21	3.71833
6.22	3.71767
6.23	3.71438
6.24	3.70418
6.25	3.70616
6.26	3.70846
6.27	3.69793
6.28	3.6976
6.29	3.70056
6.3	3.69662
6.31	3.70352
6.32	3.70385
6.33	3.68477
6.34	3.68477
6.35	3.68543
6.36	3.68609
6.37	3.67655
6.38	3.67721
6.39	3.68609
6.4	3.66865
6.41	3.67425
6.42	3.67425
6.43	3.67556
6.44	3.6578
6.45	3.65911
6.46	3.67458
6.47	3.66175
6.48	3.65879
6.49	3.6555
6.5	3.64826
6.51	3.65056
6.52	3.64661
6.53	3.64563
6.54	3.64793
6.55	3.64892
6.56	3.6453
6.57	3.64267
6.58	3.63609
6.59	3.63938
6.6	3.63148
6.61	3.6351
6.62	3.63378
6.63	3.62852
6.64	3.62622
6.65	3.63082
6.66	3.62852
6.67	3.62424
6.68	3.62852
6.69	3.61734
6.7	3.61964
6.71	3.61832
6.72	3.61536
6.73	3.60648
6.74	3.60977
6.75	3.61405
6.76	3.61898
6.77	3.61339
6.78	3.61273
6.79	3.59234
6.8	3.60582
6.81	3.61438
6.82	3.60319
6.83	3.60056
6.84	3.59234
6.85	3.59727
6.86	3.59234
6.87	3.59332
6.88	3.58773
6.89	3.59892
6.9	3.59168
6.91	3.58839
6.92	3.57852
6.93	3.57819
6.94	3.58444
6.95	3.58543
6.96	3.58181
6.97	3.58115
6.98	3.57227
6.99	3.57161
7	3.57622
7.01	3.5578
7.02	3.56602
7.03	3.56372
7.04	3.56043
7.05	3.56898
7.06	3.55056
7.07	3.55253
7.08	3.55089
7.09	3.55319
7.1	3.55122
7.11	3.54727
7.12	3.54036
7.13	3.54266
7.14	3.53214
7.15	3.53839
7.16	3.54727
7.17	3.53345
7.18	3.52457
7.19	3.52457
7.2	3.52654
7.21	3.517
7.22	3.52128
7.23	3.52029
7.24	3.51075
7.25	3.51174
7.26	3.51141
7.27	3.50483
7.28	3.5045
7.29	3.50911
7.3	3.50714
7.31	3.50187
7.32	3.50746
7.33	3.51404
7.34	3.51437
7.35	3.50483
7.36	3.50878
7.37	3.50549
7.38	3.50253
7.39	3.49562
7.4	3.49562
7.41	3.49694
7.42	3.50253
7.43	3.4976
7.44	3.48839
7.45	3.492
7.46	3.48411
7.47	3.48839
7.48	3.48115
7.49	3.47556
7.5	3.47819
7.51	3.48674
7.52	3.4726
7.53	3.48707
7.54	3.48477
7.55	3.47621
7.56	3.46536
7.57	3.47753
7.58	3.46766
7.59	3.46733
7.6	3.45944
7.61	3.46766
7.62	3.46733
7.63	3.47029
7.64	3.47227
7.65	3.45911
7.66	3.46536
7.67	3.45352
7.68	3.44924
7.69	3.4499
7.7	3.44102
7.71	3.45582
7.72	3.44858
7.73	3.45286
7.74	3.44825
7.75	3.45154
7.76	3.45023
7.77	3.44332
7.78	3.43773
7.79	3.43871
7.8	3.43279
7.81	3.43049
7.82	3.43411
7.83	3.43279
7.84	3.43641
7.85	3.43213
7.86	3.42161
7.87	3.42095
7.88	3.42523
7.89	3.42588
7.9	3.4249
7.91	3.41865
7.92	3.4193
7.93	3.42029
7.94	3.4318
7.95	3.41733
7.96	3.41207
7.97	3.41338
7.98	3.41075
7.99	3.41141
8	3.40911
8.01	3.41174
8.02	3.40779
8.03	3.40417
8.04	3.40812
8.05	3.39924
8.06	3.4068
8.07	3.39858
8.08	3.39068
8.09	3.39957
8.1	3.39628
8.11	3.39792
8.12	3.39036
8.13	3.392
8.14	3.38213
8.15	3.38476
8.16	3.38312
8.17	3.39463
8.18	3.39036
8.19	3.38904
8.2	3.39003
8.21	3.37687
8.22	3.37818
8.23	3.38476
8.24	3.38937
8.25	3.38575
8.26	3.38345
8.27	3.38345
8.28	3.38049
8.29	3.37983
8.3	3.37325
8.31	3.37588
8.32	3.37555
8.33	3.37851
8.34	3.3693
8.35	3.37358
8.36	3.37621
8.37	3.36535
8.38	3.36733
8.39	3.37226
8.4	3.36799
8.41	3.35943
8.42	3.36437
8.43	3.36305
8.44	3.36634
8.45	3.36108
8.46	3.35614
8.47	3.3693
8.48	3.36667
8.49	3.35713
8.5	3.35088
8.51	3.36108
8.52	3.34529
8.53	3.342
8.54	3.34068
8.55	3.34299
8.56	3.34331
8.57	3.34167
8.58	3.33937
8.59	3.34595
8.6	3.33904
8.61	3.33443
8.62	3.3318
8.63	3.33213
8.64	3.32851
8.65	3.32062
8.66	3.32851
8.67	3.32522
8.68	3.32654
8.69	3.32522
8.7	3.32818
8.71	3.32259
8.72	3.32259
8.73	3.32259
8.74	3.31831
8.75	3.3216
8.76	3.32193
8.77	3.3216
8.78	3.32226
8.79	3.31667
8.8	3.3091
8.81	3.31305
8.82	3.32621
8.83	3.32325
8.84	3.32325
8.85	3.31601
8.86	3.31239
8.87	3.31239
8.88	3.30779
8.89	3.31206
8.9	3.30812
8.91	3.30779
8.92	3.3045
8.93	3.30548
8.94	3.31009
8.95	3.30746
8.96	3.29726
8.97	3.29858
8.98	3.30022
8.99	3.29594
9	3.28476
9.01	3.30088
9.02	3.30877
9.03	3.29693
9.04	3.28542
9.05	3.30121
9.06	3.29134
9.07	3.28937
9.08	3.28805
9.09	3.29529
9.1	3.28871
9.11	3.29627
9.12	3.29594
9.13	3.28673
9.14	3.28937
9.15	3.27621
9.16	3.27358
9.17	3.2818
9.18	3.27884
9.19	3.27654
9.2	3.28048
9.21	3.27851
9.22	3.27687
9.23	3.27259
9.24	3.27325
9.25	3.27621
9.26	3.2716
9.27	3.27522
9.28	3.26963
9.29	3.26206
9.3	3.2591
9.31	3.26272
9.32	3.25779
9.33	3.26568
9.34	3.26864
9.35	3.25219
9.36	3.25351
9.37	3.26601
9.38	3.2693
9.39	3.26667
9.4	3.26733
9.41	3.26371
9.42	3.26173
9.43	3.26042
9.44	3.25219
9.45	3.2568
9.46	3.25746
9.47	3.25186
9.48	3.24265
9.49	3.25482
9.5	3.24989
9.51	3.25055
9.52	3.24331
9.53	3.23936
9.54	3.24364
9.55	3.2545
9.56	3.24923
9.57	3.242
9.58	3.242
9.59	3.24561
9.6	3.24463
9.61	3.2466
9.62	3.23805
9.63	3.23936
9.64	3.24167
9.65	3.23344
9.66	3.23278
9.67	3.23443
9.68	3.23673
9.69	3.23476
9.7	3.23081
9.71	3.2295
9.72	3.23213
9.73	3.2239
9.74	3.22555
9.75	3.22917
9.76	3.23542
9.77	3.23048
9.78	3.23377
9.79	3.23344
9.8	3.23081
9.81	3.21535
9.82	3.22061
9.83	3.21371
9.84	3.22259
9.85	3.22555
9.86	3.22193
9.87	3.21996
9.88	3.21173
9.89	3.22028
9.9	3.21699
9.91	3.21009
9.92	3.21338
9.93	3.21009
9.94	3.21272
9.95	3.20844
9.96	3.21469
9.97	3.20778
9.98	3.20318
9.99	3.20449
10	3.21074
10.01	3.21502
10.02	3.21371
10.03	3.2012
10.04	3.20811
10.05	3.20219
10.06	3.20153
10.07	3.20351
10.08	3.20844
10.09	3.20515
10.1	3.19232
10.11	3.20285
10.12	3.20811
10.13	3.19989
10.14	3.20614
10.15	3.19989
10.16	3.20055
10.17	3.20022
10.18	3.20351
10.19	3.20482
10.2	3.2068
10.21	3.19035
10.22	3.19693
10.23	3.19463
10.24	3.18838
10.25	3.19528
10.26	3.20186
10.27	3.19134
10.28	3.19364
10.29	3.19232
10.3	3.19364
10.31	3.1966
10.32	3.18607
10.33	3.1818
10.34	3.18509
10.35	3.18344
10.36	3.17949
10.37	3.18311
10.38	3.18114
10.39	3.18245
10.4	3.18245
10.41	3.18377
10.42	3.18673
10.43	3.18673
10.44	3.17193
10.45	3.18114
10.46	3.18673
10.47	3.1818
10.48	3.17357
10.49	3.17916
10.5	3.17324
10.51	3.16535
10.52	3.17423
10.53	3.1841
10.54	3.18541
10.55	3.17587
10.56	3.17555
10.57	3.16634
10.58	3.16699
10.59	3.17259
10.6	3.16798
10.61	3.16239
10.62	3.17291
10.63	3.17094
10.64	3.16699
10.65	3.16634
10.66	3.16666
10.67	3.16041
10.68	3.16469
10.69	3.16535
10.7	3.16897
10.71	3.16502
10.72	3.17094
10.73	3.16502
10.74	3.16601
10.75	3.16798
10.76	3.16601
10.77	3.16173
10.78	3.17061
10.79	3.15647
10.8	3.16765
10.81	3.15844
10.82	3.15647
10.83	3.16502
10.84	3.16173
10.85	3.17127
10.86	3.15515
10.87	3.15383
10.88	3.1591
10.89	3.15186
10.9	3.16305
10.91	3.15449
10.92	3.14298
10.93	3.15712
10.94	3.1489
10.95	3.15252
10.96	3.16008
10.97	3.15976
10.98	3.15976
10.99	3.15581
11	3.14627
11.01	3.14265
11.02	3.15087
11.03	3.15285
11.04	3.15318
11.05	3.15087
11.06	3.14594
11.07	3.14693
11.08	3.14462
11.09	3.14693
11.1	3.14594
11.11	3.14035
11.12	3.1512
11.13	3.14693
11.14	3.14791
11.15	3.14265
11.16	3.13772
11.17	3.14133
11.18	3.14265
11.19	3.13739
11.2	3.14232
11.21	3.13607
11.22	3.13377
11.23	3.14364
11.24	3.14002
11.25	3.13278
11.26	3.13804
11.27	3.13739
11.28	3.13377
11.29	3.14002
11.3	3.13212
11.31	3.14627
11.32	3.13903
11.33	3.13081
11.34	3.1341
11.35	3.13311
11.36	3.14035
11.37	3.13245
11.38	3.12653
11.39	3.11995
11.4	3.12489
11.41	3.13212
11.42	3.13739
11.43	3.12291
11.44	3.12291
11.45	3.12982
11.46	3.1239
11.47	3.13377
11.48	3.12818
11.49	3.12686
11.5	3.11929
11.51	3.12127
11.52	3.12423
11.53	3.12752
11.54	3.12489
11.55	3.11304
11.56	3.12061
11.57	3.1239
11.58	3.12785
11.59	3.12357
11.6	3.11469
11.61	3.11633
11.62	3.11666
11.63	3.11929
11.64	3.1216
11.65	3.12061
11.66	3.11666
11.67	3.12818
11.68	3.11568
11.69	3.11864
11.7	3.11699
11.71	3.116
11.72	3.11633
11.73	3.12028
11.74	3.12653
11.75	3.11897
11.76	3.10943
11.77	3.1137
11.78	3.11304
11.79	3.1114
11.8	3.11436
11.81	3.11008
11.82	3.11271
11.83	3.11337
11.84	3.10844
11.85	3.10383
11.86	3.10186
11.87	3.10548
11.88	3.1012
11.89	3.10285
11.9	3.10087
11.91	3.09594
11.92	3.10186
11.93	3.10877
11.94	3.09923
11.95	3.10778
11.96	3.09923
11.97	3.10285
11.98	3.1091
11.99	3.09824
12	3.09989
12.01	3.11074
12.02	3.09824
12.03	3.091
12.04	3.10383
12.05	3.09561
12.06	3.09495
12.07	3.1035
12.08	3.09923
12.09	3.10581
12.1	3.10449
12.11	3.0989
12.12	3.09692
12.13	3.09364
12.14	3.10219
12.15	3.10712
12.16	3.09232
12.17	3.09429
12.18	3.09791
12.19	3.09429
12.2	3.08508
12.21	3.09298
12.22	3.09232
12.23	3.10581
12.24	3.08739
12.25	3.08837
12.26	3.09528
12.27	3.1035
12.28	3.09725
12.29	3.09462
12.3	3.09758
12.31	3.0864
12.32	3.09594
12.33	3.09989
12.34	3.09429
12.35	3.09035
12.36	3.09002
12.37	3.09594
12.38	3.09528
12.39	3.09035
12.4	3.09594
12.41	3.08903
12.42	3.09035
12.43	3.0887
12.44	3.08837
12.45	3.07653
12.46	3.07916
12.47	3.08377
12.48	3.08607
12.49	3.08508
12.5	3.09067
12.51	3.09035
12.52	3.08508
12.53	3.08179
12.54	3.08475
12.55	3.08804
12.56	3.07719
12.57	3.08146
12.58	3.07258
12.59	3.08081
12.6	3.08311
12.61	3.08245
12.62	3.08377
12.63	3.08278
12.64	3.07982
12.65	3.07456
12.66	3.0841
12.67	3.08541
12.68	3.08146
12.69	3.07587
12.7	3.07423
12.71	3.07817
12.72	3.07883
12.73	3.07817
12.74	3.07686
12.75	3.07192
12.76	3.07686
12.77	3.07817
12.78	3.07423
12.79	3.0739
12.8	3.07719
12.81	3.07686
12.82	3.07488
12.83	3.07653
12.84	3.0716
12.85	3.07324
12.86	3.0716
12.87	3.0762
12.88	3.07653
12.89	3.07456
12.9	3.0762
12.91	3.07785
12.92	3.07324
12.93	3.07258
12.94	3.07752
12.95	3.06929
12.96	3.06699
12.97	3.06863
12.98	3.08574
12.99	3.07225
13	3.07686
13.01	3.0785
13.02	3.0716
13.03	3.06798
13.04	3.06732
13.05	3.07291
13.06	3.06929
13.07	3.07423
13.08	3.07258
13.09	3.07094
13.1	3.06699
13.11	3.06699
13.12	3.06337
13.13	3.066
13.14	3.06502
13.15	3.06863
13.16	3.07423
13.17	3.06995
13.18	3.06896
13.19	3.0637
13.2	3.0716
13.21	3.05613
13.22	3.06337
13.23	3.05778
13.24	3.06436
13.25	3.06534
13.26	3.06041
13.27	3.05646
13.28	3.05679
13.29	3.04725
13.3	3.05975
13.31	3.0637
13.32	3.05317
13.33	3.06534
13.34	3.05317
13.35	3.06206
13.36	3.06041
13.37	3.05515
13.38	3.04955
13.39	3.04824
13.4	3.05646
13.41	3.05712
13.42	3.05548
13.43	3.05745
13.44	3.05712
13.45	3.05087
13.46	3.05219
13.47	3.05482
13.48	3.04758
13.49	3.05087
13.5	3.04659
13.51	3.04988
13.52	3.05877
13.53	3.05613
13.54	3.05383
13.55	3.04824
13.56	3.05646
13.57	3.04955
13.58	3.05646
13.59	3.05482
13.6	3.05219
13.61	3.05745
13.62	3.05416
13.63	3.04988
13.64	3.03804
13.65	3.04659
13.66	3.05087
13.67	3.04495
13.68	3.04988
13.69	3.04725
13.7	3.05548
13.71	3.0512
13.72	3.05153
13.73	3.04298
13.74	3.04429
13.75	3.04692
13.76	3.04857
13.77	3.04955
13.78	3.04528
13.79	3.04923
13.8	3.041
13.81	3.03804
13.82	3.04265
13.83	3.0433
13.84	3.04857
13.85	3.05153
13.86	3.05416
13.87	3.04955
13.88	3.04627
13.89	3.03409
13.9	3.04232
13.91	3.0433
13.92	3.04002
13.93	3.03673
13.94	3.04363
13.95	3.04133
13.96	3.04758
13.97	3.04824
13.98	3.04955
13.99	3.04955
14	3.04857
14.01	3.04627
14.02	3.04396
14.03	3.04824
14.04	3.04002
14.05	3.04232
14.06	3.0535
14.07	3.04232
14.08	3.04133
14.09	3.04429
14.1	3.04528
14.11	3.04725
14.12	3.04199
14.13	3.04396
14.14	3.04166
14.15	3.03607
14.16	3.04528
14.17	3.04692
14.18	3.04199
14.19	3.04396
14.2	3.04594
14.21	3.04166
14.22	3.03969
14.23	3.03903
14.24	3.03541
14.25	3.02751
14.26	3.02488
14.27	3.03048
14.28	3.03212
14.29	3.03015
14.3	3.03607
14.31	3.04002
14.32	3.04067
14.33	3.03969
14.34	3.03442
14.35	3.02686
14.36	3.03673
14.37	3.03311
14.38	3.04166
14.39	3.03344
14.4	3.02916
14.41	3.02521
14.42	3.02916
14.43	3.03442
14.44	3.03837
14.45	3.02751
14.46	3.02159
14.47	3.03442
14.48	3.02751
14.49	3.03278
14.5	3.04265
14.51	3.02784
14.52	3.02686
14.53	3.03278
14.54	3.03771
14.55	3.03344
14.56	3.03409
14.57	3.03015
14.58	3.02817
14.59	3.03771
14.6	3.03771
14.61	3.02587
14.62	3.03705
14.63	3.02653
14.64	3.03179
14.65	3.03113
14.66	3.03278
14.67	3.03344
14.68	3.03442
14.69	3.01798
14.7	3.01666
14.71	3.03113
14.72	3.02521
14.73	3.02982
14.74	3.0308
14.75	3.02225
14.76	3.0308
14.77	3.02423
14.78	3.02357
14.79	3.02192
14.8	3.02587
14.81	3.01929
14.82	3.0285
14.83	3.02225
14.84	3.02028
14.85	3.02094
14.86	3.02817
14.87	3.0262
14.88	3.0183
14.89	3.02982
14.9	3.03278
14.91	3.02061
14.92	3.02291
14.93	3.01798
14.94	3.02094
14.95	3.02159
14.96	3.0239
14.97	3.02817
14.98	3.02751
14.99	3.02291
15	3.01995
15.01	3.01863
15.02	3.02554
15.03	3.0137
15.04	3.02126
15.05	3.02061
15.06	3.02192
15.07	3.01929
15.08	3.01699
15.09	3.02357
15.1	3.01962
15.11	3.02225
15.12	3.02982
15.13	3.03015
15.14	3.02357
15.15	3.02488
15.16	3.01765
15.17	3.02094
15.18	3.0183
15.19	3.01238
15.2	3.01172
15.21	3.01469
15.22	3.01699
15.23	3.01929
15.24	3.01501
15.25	3.01699
15.26	3.01699
15.27	3.01863
15.28	3.02719
15.29	3.0183
15.3	3.01436
15.31	3.00712
15.32	3.00909
15.33	3.01501
15.34	3.0183
15.35	3.00613
15.36	3.01666
15.37	3.0239
15.38	3.01765
15.39	3.02094
15.4	3.01501
15.41	3.02094
15.42	3.01534
15.43	3.01567
15.44	3.01567
15.45	3.00909
15.46	3.01337
15.47	3.01107
15.48	3.01501
15.49	3.01962
15.5	3.02357
15.51	3.01238
15.52	3.00844
15.53	3.01205
15.54	3.0137
15.55	3.00778
15.56	3.01041
15.57	3.00942
15.58	2.99922
15.59	3.0058
15.6	3.00087
15.61	3.00909
15.62	3.01765
15.63	3.00975
15.64	3.01469
15.65	3.016
15.66	3.01732
15.67	3.01172
15.68	3.01501
15.69	3.01469
15.7	3.01501
15.71	3.01567
15.72	3.01765
15.73	3.00547
15.74	3.00778
15.75	3.0035
15.76	3.00646
15.77	3.0114
15.78	3.01238
15.79	3.00942
15.8	3.00613
15.81	3.00844
15.82	3.01074
15.83	3.01172
15.84	3.0035
15.85	3.00844
15.86	3.01041
15.87	3.01041
15.88	3.0114
15.89	3.00942
15.9	3.00284
15.91	3.00153
15.92	3.00449
15.93	3.00811
15.94	3.00844
15.95	3.00975
15.96	3.00811
15.97	3.00383
15.98	3.00416
15.99	3.01074
16	3.00975
16.01	3.01271
16.02	3.00975
16.03	3.00679
16.04	3.01304
16.05	3.00745
16.06	3.00515
16.07	3.00942
16.08	3.00942
16.09	3.00942
16.1	3.01172
16.11	3.00186
16.12	3.01008
16.13	3.00317
16.14	3.00547
16.15	3.00646
16.16	2.99429
16.17	2.99593
16.18	3.0035
16.19	3.00021
16.2	2.99955
16.21	3.00219
16.22	3.00679
16.23	3.00219
16.24	3.00712
16.25	3.0012
16.26	2.99626
16.27	3.00547
16.28	3.00416
16.29	2.99791
16.3	2.99363
16.31	3.0012
16.32	3.00844
16.33	2.99692
16.34	2.99659
16.35	3.00613
16.36	3.00547
16.37	3.00383
16.38	2.99528
16.39	3.00646
16.4	3.0035
16.41	2.99265
16.42	2.99857
16.43	2.99791
16.44	3.00515
16.45	3.00613
16.46	3.0114
16.47	3.00416
16.48	3.0012
16.49	2.99725
16.5	3.00416
16.51	3.00449
16.52	3.00515
16.53	3.00153
16.54	2.9989
16.55	3.00021
16.56	3.00284
16.57	3.00251
16.58	2.99692
16.59	3.00679
16.6	2.99396
16.61	2.9989
16.62	3.00219
16.63	3.00219
16.64	2.98705
16.65	3.00054
16.66	2.99791
16.67	3.00416
16.68	3.00087
16.69	2.99659
16.7	2.99593
16.71	2.9989
16.72	3.00251
16.73	3.00416
16.74	3.00021
16.75	2.99528
16.76	2.99528
16.77	2.99528
16.78	2.99232
16.79	2.99133
16.8	2.99396
16.81	2.99561
16.82	2.99758
16.83	2.99462
16.84	2.99528
16.85	2.99199
16.86	2.99725
16.87	2.99593
16.88	2.98837
16.89	2.99001
16.9	2.99265
16.91	2.98705
16.92	2.99528
16.93	2.99988
16.94	3.00219
16.95	2.99297
16.96	2.9933
16.97	2.98968
16.98	2.98442
16.99	2.99857
17	3.0012
17.01	2.98574
17.02	2.98541
17.03	2.98804
17.04	2.99166
17.05	2.991
17.06	2.98574
17.07	2.99265
17.08	3.0012
17.09	3.00021
17.1	2.99758
17.11	2.99561
17.12	2.99067
17.13	2.99297
17.14	2.98607
17.15	2.98738
17.16	2.98278
17.17	2.98376
17.18	2.98475
17.19	2.98837
17.2	2.9864
17.21	2.98541
17.22	2.99955
17.23	2.98047
17.24	2.99133
17.25	2.99396
17.26	3.00284
17.27	2.99561
17.28	2.98508
17.29	2.99561
17.3	2.98475
17.31	2.98738
17.32	2.99034
17.33	2.98738
17.34	2.9864
17.35	2.98936
17.36	2.9808
17.37	2.98113
17.38	2.98179
17.39	2.99561
17.4	2.98837
17.41	2.98607
17.42	2.99067
17.43	2.99199
17.44	2.99561
17.45	2.97982
17.46	2.98541
17.47	2.98475
17.48	2.99166
17.49	2.99363
17.5	2.99396
17.51	2.98672
17.52	2.99265
17.53	2.99232
17.54	2.99166
17.55	2.99429
17.56	2.99133
17.57	3.00219
17.58	3.00087
17.59	2.99824
17.6	2.9989
17.61	2.99133
17.62	2.99034
17.63	2.99001
17.64	2.99495
17.65	2.99626
17.66	2.99396
17.67	2.99791
17.68	2.98738
17.69	2.98903
17.7	2.99232
17.71	2.98837
17.72	2.99232
17.73	2.98343
17.74	2.98738
17.75	2.98475
17.76	2.98607
17.77	2.9808
17.78	2.97949
17.79	2.98508
17.8	2.98409
17.81	2.98442
17.82	2.98047
17.83	2.98113
17.84	2.98936
17.85	2.98574
17.86	2.991
17.87	2.98212
17.88	2.98574
17.89	2.98541
17.9	2.98212
17.91	2.98705
17.92	2.99396
17.93	2.97686
17.94	2.98212
17.95	2.9887
17.96	2.9887
17.97	2.98212
17.98	2.98047
17.99	2.98672
18	2.98212
18.01	2.98968
18.02	2.98146
18.03	2.98047
18.04	2.98245
18.05	2.97686
18.06	2.97587
18.07	2.97916
18.08	2.9808
18.09	2.98343
18.1	2.97455
18.11	2.98409
18.12	2.98245
18.13	2.97653
18.14	2.97718
18.15	2.97817
18.16	2.97817
18.17	2.98607
18.18	2.98804
18.19	2.97061
18.2	2.97751
18.21	2.98245
18.22	2.98113
18.23	2.99067
18.24	2.97883
18.25	2.97587
18.26	2.97653
18.27	2.97718
18.28	2.98014
18.29	2.98278
18.3	2.98212
18.31	2.98113
18.32	2.97357
18.33	2.97488
18.34	2.97324
18.35	2.98574
18.36	2.98475
18.37	2.9808
18.38	2.98738
18.39	2.97686
18.4	2.97949
18.41	2.98179
18.42	2.98574
18.43	2.99363
18.44	2.98311
18.45	2.9808
18.46	2.98278
18.47	2.98541
18.48	2.98705
18.49	2.97949
18.5	2.98146
18.51	2.9808
18.52	2.98409
18.53	2.98278
18.54	2.98245
18.55	2.98574
18.56	2.98113
18.57	2.99034
18.58	2.98212
18.59	2.98014
18.6	2.9785
18.61	2.98113
18.62	2.97982
18.63	2.96896
18.64	2.97291
18.65	2.98047
18.66	2.97883
18.67	2.98212
18.68	2.97784
18.69	2.9683
18.7	2.97357
18.71	2.98376
18.72	2.97126
18.73	2.97982
18.74	2.98212
18.75	2.97686
18.76	2.97357
18.77	2.97093
18.78	2.96995
18.79	2.97883
18.8	2.97093
18.81	2.96962
18.82	2.97653
18.83	2.96863
18.84	2.98442
18.85	2.96797
18.86	2.97159
18.87	2.9762
18.88	2.97488
18.89	2.97159
18.9	2.97192
18.91	2.96896
18.92	2.97291
18.93	2.96501
18.94	2.97159
18.95	2.97258
18.96	2.97093
18.97	2.96633
18.98	2.97883
18.99	2.98113
19	2.97916
19.01	2.97718
19.02	2.97061
19.03	2.97225
19.04	2.97686
19.05	2.97817
19.06	2.97751
19.07	2.97389
19.08	2.97488
19.09	2.9683
19.1	2.97126
19.11	2.96995
19.12	2.97488
19.13	2.97718
19.14	2.97192
19.15	2.97949
19.16	2.98047
19.17	2.97521
19.18	2.96567
19.19	2.97291
19.2	2.97554
19.21	2.97521
19.22	2.97488
19.23	2.96797
19.24	2.96666
19.25	2.97126
19.26	2.97028
19.27	2.97192
19.28	2.97587
19.29	2.96041
19.3	2.97455
19.31	2.98179
19.32	2.98804
19.33	2.98508
19.34	2.97061
19.35	2.97061
19.36	2.97324
19.37	2.97422
19.38	2.98146
19.39	2.98014
19.4	2.98179
19.41	2.97982
19.42	2.97455
19.43	2.97521
19.44	2.98442
19.45	2.97751
19.46	2.96633
19.47	2.97488
19.48	2.9785
19.49	2.97916
19.5	2.97751
19.51	2.97883
19.52	2.97455
19.53	2.97324
19.54	2.97093
19.55	2.97357
19.56	2.97653
19.57	2.97093
19.58	2.97126
19.59	2.97159
19.6	2.96962
19.61	2.96995
19.62	2.97126
19.63	2.97291
19.64	2.96567
19.65	2.96567
19.66	2.96337
19.67	2.97225
19.68	2.96797
19.69	2.96205
19.7	2.9637
19.71	2.96304
19.72	2.96567
19.73	2.96863
19.74	2.96403
19.75	2.96337
19.76	2.9762
19.77	2.96962
19.78	2.96863
19.79	2.96732
19.8	2.96764
19.81	2.97093
19.82	2.95975
19.83	2.96929
19.84	2.96304
19.85	2.96896
19.86	2.97817
19.87	2.96896
19.88	2.96238
19.89	2.96764
19.9	2.96501
19.91	2.96468
19.92	2.96205
19.93	2.96633
19.94	2.96699
19.95	2.96764
19.96	2.96435
19.97	2.96797
19.98	2.96501
19.99	2.96041
20	2.97291
20.01	2.97192
20.02	2.96896
20.03	2.97455
20.04	2.97093
20.05	2.96238
20.06	2.97126
20.07	2.97324
20.08	2.97653
20.09	2.97455
20.1	2.9683
20.11	2.97291
20.12	2.95909
20.13	2.96468
20.14	2.97686
20.15	2.96403
20.16	2.96435
20.17	2.96995
20.18	2.96863
20.19	2.96468
20.2	2.95843
20.21	2.97751
20.22	2.97028
20.23	2.95843
20.24	2.96501
20.25	2.96896
20.26	2.96501
20.27	2.95514
20.28	2.96764
20.29	2.96534
20.3	2.96271
20.31	2.95679
20.32	2.96238
20.33	2.95514
20.34	2.9637
20.35	2.9637
20.36	2.95942
20.37	2.95613
20.38	2.96205
20.39	2.96896
20.4	2.9637
20.41	2.96732
20.42	2.96633
20.43	2.96337
20.44	2.95909
20.45	2.96337
20.46	2.96501
20.47	2.96929
20.48	2.96534
20.49	2.95514
20.5	2.95449
20.51	2.96172
20.52	2.96666
20.53	2.96863
20.54	2.95449
20.55	2.95482
20.56	2.96304
20.57	2.96107
20.58	2.97159
20.59	2.96699
20.6	2.95942
20.61	2.95317
20.62	2.96041
20.63	2.97389
20.64	2.97291
20.65	2.97159
20.66	2.96764
20.67	2.96008
20.68	2.9637
20.69	2.95876
20.7	2.96304
20.71	2.95909
20.72	2.96403
20.73	2.96732
20.74	2.96337
20.75	2.96107
20.76	2.95514
20.77	2.95876
20.78	2.96107
20.79	2.96337
20.8	2.96139
20.81	2.9581
20.82	2.96534
20.83	2.96501
20.84	2.96501
20.85	2.95679
20.86	2.96403
20.87	2.96271
20.88	2.96403
20.89	2.96501
20.9	2.9558
20.91	2.95646
20.92	2.96468
20.93	2.96205
20.94	2.9558
20.95	2.95087
20.96	2.95646
20.97	2.95054
20.98	2.95251
20.99	2.95218
21	2.95712
21.01	2.95482
21.02	2.95383
21.03	2.95942
21.04	2.96172
21.05	2.95679
21.06	2.96074
21.07	2.9581
21.08	2.96337
21.09	2.96271
21.1	2.96107
21.11	2.95909
21.12	2.96139
21.13	2.95843
21.14	2.96205
21.15	2.96863
21.16	2.96337
21.17	2.95383
21.18	2.95514
21.19	2.96501
21.2	2.95613
21.21	2.95482
21.22	2.95876
21.23	2.95514
21.24	2.95383
21.25	2.95876
21.26	2.95975
21.27	2.96107
21.28	2.95975
21.29	2.95514
21.3	2.95778
21.31	2.96107
21.32	2.96139
21.33	2.95547
21.34	2.9558
21.35	2.95449
21.36	2.95218
21.37	2.96797
21.38	2.95909
21.39	2.9558
21.4	2.9558
21.41	2.95218
21.42	2.94889
21.43	2.95284
21.44	2.95416
21.45	2.95482
21.46	2.95909
21.47	2.95942
21.48	2.96205
21.49	2.96008
21.5	2.95547
21.51	2.96041
21.52	2.95482
21.53	2.9535
21.54	2.95942
21.55	2.97192
21.56	2.95547
21.57	2.94791
21.58	2.96041
21.59	2.95514
21.6	2.95745
21.61	2.94758
21.62	2.96041
21.63	2.95317
21.64	2.95087
21.65	2.96468
21.66	2.95975
21.67	2.94922
21.68	2.95547
21.69	2.95284
21.7	2.95251
21.71	2.95153
21.72	2.95876
21.73	2.95284
21.74	2.95087
21.75	2.95778
21.76	2.95449
21.77	2.95416
21.78	2.95514
21.79	2.95778
21.8	2.95317
21.81	2.95449
21.82	2.95712
21.83	2.95482
21.84	2.96107
21.85	2.96008
21.86	2.95679
21.87	2.95514
21.88	2.95153
21.89	2.94758
21.9	2.95514
21.91	2.94824
21.92	2.94791
21.93	2.95745
21.94	2.9535
21.95	2.95679
21.96	2.96435
21.97	2.95712
21.98	2.95975
21.99	2.9512
22	2.95284
22.01	2.95449
22.02	2.94889
22.03	2.94889
22.04	2.94955
22.05	2.95054
22.06	2.95482
22.07	2.9581
22.08	2.95712
22.09	2.95778
22.1	2.95514
22.11	2.95679
22.12	2.95153
22.13	2.94593
22.14	2.94396
22.15	2.94922
22.16	2.96107
22.17	2.95449
22.18	2.95778
22.19	2.95153
22.2	2.95218
22.21	2.94856
22.22	2.94791
22.23	2.94067
22.24	2.95317
22.25	2.95185
22.26	2.94922
22.27	2.95383
22.28	2.94955
22.29	2.95185
22.3	2.94659
22.31	2.95021
22.32	2.941
22.33	2.95449
22.34	2.95251
22.35	2.94659
22.36	2.94725
22.37	2.95054
22.38	2.95218
22.39	2.95843
22.4	2.9512
22.41	2.95054
22.42	2.95317
22.43	2.94462
22.44	2.95087
22.45	2.94396
22.46	2.94856
22.47	2.95251
22.48	2.94922
22.49	2.95613
22.5	2.94758
22.51	2.95416
22.52	2.94692
22.53	2.95153
22.54	2.96041
22.55	2.94725
22.56	2.94889
22.57	2.94692
22.58	2.95087
22.59	2.9535
22.6	2.94593
22.61	2.94034
22.62	2.93968
22.63	2.94133
22.64	2.95087
22.65	2.94363
22.66	2.94264
22.67	2.94231
22.68	2.94231
22.69	2.94133
22.7	2.94659
22.71	2.94725
22.72	2.95679
22.73	2.94396
22.74	2.93935
22.75	2.94528
22.76	2.94824
22.77	2.95153
22.78	2.94955
22.79	2.9535
22.8	2.9512
22.81	2.95021
22.82	2.9558
22.83	2.94856
22.84	2.94231
22.85	2.94199
22.86	2.94297
22.87	2.95185
22.88	2.94034
22.89	2.93705
22.9	2.94199
22.91	2.95087
22.92	2.9558
22.93	2.95745
22.94	2.9535
22.95	2.94955
22.96	2.94133
22.97	2.95218
22.98	2.94791
22.99	2.95416
23	2.95547
23.01	2.94791
23.02	2.95613
23.03	2.95284
23.04	2.94495
23.05	2.94922
23.06	2.94955
23.07	2.94955
23.08	2.95185
23.09	2.95449
23.1	2.9456
23.11	2.94593
23.12	2.95284
23.13	2.94791
23.14	2.95514
23.15	2.95251
23.16	2.94626
23.17	2.95514
23.18	2.95218
23.19	2.9512
23.2	2.94462
23.21	2.94856
23.22	2.94363
23.23	2.94889
23.24	2.95054
23.25	2.94988
23.26	2.94462
23.27	2.94889
23.28	2.94593
23.29	2.94297
23.3	2.95482
23.31	2.94791
23.32	2.94659
23.33	2.9558
23.34	2.95514
23.35	2.9558
23.36	2.94758
23.37	2.95185
23.38	2.9581
23.39	2.95712
23.4	2.95054
23.41	2.94725
23.42	2.94824
23.43	2.94199
23.44	2.94297
23.45	2.94429
23.46	2.9456
23.47	2.9433
23.48	2.9433
23.49	2.94133
23.5	2.94199
23.51	2.94199
23.52	2.94166
23.53	2.94889
23.54	2.941
23.55	2.94856
23.56	2.9512
23.57	2.94758
23.58	2.94725
23.59	2.94955
23.6	2.94988
23.61	2.94429
23.62	2.94955
23.63	2.94231
23.64	2.94626
23.65	2.94725
23.66	2.94199
23.67	2.94429
23.68	2.94725
23.69	2.94231
23.7	2.94231
23.71	2.95284
23.72	2.94922
23.73	2.95514
23.74	2.95317
23.75	2.94824
23.76	2.94791
23.77	2.95284
23.78	2.95284
23.79	2.95185
23.8	2.9512
23.81	2.94955
23.82	2.95679
23.83	2.95218
23.84	2.94791
23.85	2.94922
23.86	2.9433
23.87	2.95383
23.88	2.94889
23.89	2.94824
23.9	2.94922
23.91	2.94692
23.92	2.94824
23.93	2.95317
23.94	2.94199
23.95	2.94824
23.96	2.94988
23.97	2.94396
23.98	2.93804
23.99	2.94133
24	2.94626
24.01	2.94133
24.02	2.93968
24.03	2.95745
24.04	2.94824
24.05	2.94725
24.06	2.95218
24.07	2.94593
24.08	2.95021
24.09	2.94922
24.1	2.94034
24.11	2.93508
24.12	2.94133
24.13	2.94429
24.14	2.94725
24.15	2.94396
24.16	2.93508
24.17	2.94133
24.18	2.93935
24.19	2.94264
24.2	2.94429
24.21	2.94429
24.22	2.94001
24.23	2.9387
24.24	2.93376
24.25	2.93935
24.26	2.95087
24.27	2.94626
24.28	2.93804
24.29	2.94297
24.3	2.94264
24.31	2.93574
24.32	2.9387
24.33	2.93804
24.34	2.93442
24.35	2.93574
24.36	2.94297
24.37	2.94692
24.38	2.93837
24.39	2.9433
24.4	2.9456
24.41	2.94528
24.42	2.93903
24.43	2.941
24.44	2.9512
24.45	2.93968
24.46	2.94297
24.47	2.94166
24.48	2.94692
24.49	2.93738
24.5	2.941
24.51	2.94396
24.52	2.93935
24.53	2.95284
24.54	2.94791
24.55	2.94922
24.56	2.94462
24.57	2.94396
24.58	2.93968
24.59	2.94429
24.6	2.94495
24.61	2.93277
24.62	2.93343
24.63	2.941
24.64	2.94955
24.65	2.94495
24.66	2.94725
24.67	2.94133
24.68	2.94001
24.69	2.94495
24.7	2.94988
24.71	2.94824
24.72	2.94429
24.73	2.93606
24.74	2.94462
24.75	2.94725
24.76	2.95251
24.77	2.94758
24.78	2.94429
24.79	2.93771
24.8	2.94396
24.81	2.94001
24.82	2.95251
24.83	2.94495
24.84	2.94791
24.85	2.94856
24.86	2.9433
24.87	2.94988
24.88	2.9456
24.89	2.9456
24.9	2.94231
24.91	2.94725
24.92	2.94659
24.93	2.94297
24.94	2.94824
24.95	2.94133
24.96	2.9456
24.97	2.9387
24.98	2.94363
24.99	2.94429
25	2.9433
25.01	2.93903
25.02	2.93935
25.03	2.93705
25.04	2.94264
25.05	2.94133
25.06	2.92949
25.07	2.93508
25.08	2.93705
25.09	2.93968
25.1	2.94824
25.11	2.941
25.12	2.94199
25.13	2.94462
25.14	2.94297
25.15	2.9387
25.16	2.93541
25.17	2.93672
25.18	2.94199
25.19	2.9433
25.2	2.94363
25.21	2.94462
25.22	2.94133
25.23	2.93245
25.24	2.94001
25.25	2.94067
25.26	2.93935
25.27	2.93738
25.28	2.94363
25.29	2.93935
25.3	2.94462
25.31	2.93935
25.32	2.94133
25.33	2.93968
25.34	2.94034
25.35	2.93804
25.36	2.94528
25.37	2.94067
25.38	2.94495
25.39	2.94264
25.4	2.94692
25.41	2.94462
25.42	2.94297
25.43	2.94495
25.44	2.941
25.45	2.94001
25.46	2.94166
25.47	2.95087
25.48	2.94856
25.49	2.9456
25.5	2.94264
25.51	2.94593
25.52	2.93935
25.53	2.92883
25.54	2.93639
25.55	2.93639
25.56	2.93804
25.57	2.93837
25.58	2.93212
25.59	2.94429
25.6	2.93935
25.61	2.93047
25.62	2.94001
25.63	2.93935
25.64	2.93837
25.65	2.94133
25.66	2.9387
25.67	2.94166
25.68	2.94429
25.69	2.93409
25.7	2.9387
25.71	2.92981
25.72	2.93475
25.73	2.94199
25.74	2.94067
25.75	2.94067
25.76	2.9433
25.77	2.94133
25.78	2.94363
25.79	2.93672
25.8	2.95185
25.81	2.94528
25.82	2.93837
25.83	2.93903
25.84	2.94791
25.85	2.94692
25.86	2.93837
25.87	2.94034
25.88	2.93574
25.89	2.93212
25.9	2.93179
25.91	2.93541
25.92	2.93442
25.93	2.93606
25.94	2.92981
25.95	2.93179
25.96	2.93277
25.97	2.93639
25.98	2.93508
25.99	2.93475
26	2.93376
26.01	2.93804
26.02	2.93047
26.03	2.93804
26.04	2.93672
26.05	2.93442
26.06	2.93804
26.07	2.94199
26.08	2.92949
26.09	2.92981
26.1	2.93935
26.11	2.94067
26.12	2.9387
26.13	2.94429
26.14	2.94034
26.15	2.93376
26.16	2.94528
26.17	2.93672
26.18	2.93574
26.19	2.94297
26.2	2.93968
26.21	2.94528
26.22	2.941
26.23	2.94231
26.24	2.93968
26.25	2.93935
26.26	2.93376
26.27	2.9331
26.28	2.94791
26.29	2.94889
26.3	2.93639
26.31	2.93508
26.32	2.93771
26.33	2.93738
26.34	2.93639
26.35	2.94725
26.36	2.93771
26.37	2.93738
26.38	2.93245
26.39	2.93903
26.4	2.93442
26.41	2.93738
26.42	2.92488
26.43	2.93212
26.44	2.9308
26.45	2.92817
26.46	2.93606
26.47	2.93376
26.48	2.93146
26.49	2.93606
26.5	2.94001
26.51	2.93146
26.52	2.94495
26.53	2.93442
26.54	2.93277
26.55	2.92718
26.56	2.93212
26.57	2.92949
26.58	2.93837
26.59	2.93409
26.6	2.92883
26.61	2.93705
26.62	2.93442
26.63	2.93508
26.64	2.92751
26.65	2.93574
26.66	2.92784
26.67	2.92883
26.68	2.93475
26.69	2.93409
26.7	2.93639
26.71	2.94264
26.72	2.94001
26.73	2.93968
26.74	2.94264
26.75	2.94166
26.76	2.94429
26.77	2.93376
26.78	2.93574
26.79	2.93606
26.8	2.93968
26.81	2.93442
26.82	2.93475
26.83	2.93606
26.84	2.93935
26.85	2.94297
26.86	2.93935
26.87	2.93179
26.88	2.94593
26.89	2.94264
26.9	2.93672
26.91	2.94528
26.92	2.93771
26.93	2.93179
26.94	2.93837
26.95	2.941
26.96	2.941
26.97	2.94297
26.98	2.93442
26.99	2.93343
27	2.93277
27.01	2.94495
27.02	2.93541
27.03	2.9433
27.04	2.93771
27.05	2.93343
27.06	2.93903
27.07	2.941
27.08	2.93804
27.09	2.93245
27.1	2.92916
27.11	2.94067
27.12	2.92916
27.13	2.93903
27.14	2.93738
27.15	2.9387
27.16	2.93705
27.17	2.9331
27.18	2.94067
27.19	2.93705
27.2	2.93113
27.21	2.9308
27.22	2.94231
27.23	2.9456
27.24	2.94297
27.25	2.93705
27.26	2.94133
27.27	2.93903
27.28	2.94067
27.29	2.94791
27.3	2.9308
27.31	2.93508
27.32	2.92389
27.33	2.93804
27.34	2.941
27.35	2.93672
27.36	2.93409
27.37	2.93442
27.38	2.94429
27.39	2.93903
27.4	2.93146
27.41	2.9331
27.42	2.93837
27.43	2.93935
27.44	2.92751
27.45	2.92718
27.46	2.93113
27.47	2.93212
27.48	2.93343
27.49	2.9387
27.5	2.93639
27.51	2.92784
27.52	2.92751
27.53	2.93014
27.54	2.92652
27.55	2.92784
27.56	2.93179
27.57	2.92652
27.58	2.92291
27.59	2.93606
27.6	2.93277
27.61	2.92258
27.62	2.92949
27.63	2.93277
27.64	2.93343
27.65	2.9308
27.66	2.93047
27.67	2.93442
27.68	2.92981
27.69	2.9331
27.7	2.92784
27.71	2.93541
27.72	2.93113
27.73	2.92784
27.74	2.92949
27.75	2.92455
27.76	2.92784
27.77	2.92587
27.78	2.93376
27.79	2.92949
27.8	2.93376
27.81	2.93047
27.82	2.92521
27.83	2.92784
27.84	2.93277
27.85	2.92291
27.86	2.92027
27.87	2.92488
27.88	2.92027
27.89	2.93047
27.9	2.92784
27.91	2.92718
27.92	2.93672
27.93	2.92587
27.94	2.92554
27.95	2.92159
27.96	2.93639
27.97	2.92817
27.98	2.93442
27.99	2.92784
28	2.93606
28.01	2.92192
28.02	2.92554
28.03	2.93277
28.04	2.93343
28.05	2.93475
28.06	2.941
28.07	2.93508
28.08	2.93705
28.09	2.93672
28.1	2.93277
28.11	2.93179
28.12	2.94264
28.13	2.93376
28.14	2.93179
28.15	2.93179
28.16	2.93245
28.17	2.93935
28.18	2.94001
28.19	2.93014
28.2	2.93014
28.21	2.93047
28.22	2.93376
28.23	2.92949
28.24	2.92949
28.25	2.92981
28.26	2.93113
28.27	2.92916
28.28	2.92422
28.29	2.941
28.3	2.92949
28.31	2.92751
28.32	2.92784
28.33	2.92685
28.34	2.92554
28.35	2.92159
28.36	2.92027
28.37	2.92652
28.38	2.92817
28.39	2.92258
28.4	2.92488
28.41	2.92916
28.42	2.93014
28.43	2.92949
28.44	2.92685
28.45	2.9331
28.46	2.93146
28.47	2.92916
28.48	2.92718
28.49	2.92784
28.5	2.9285
28.51	2.9206
28.52	2.92784
28.53	2.93738
28.54	2.9285
28.55	2.93179
28.56	2.92718
28.57	2.91995
28.58	2.91962
28.59	2.92981
28.6	2.9262
28.61	2.93047
28.62	2.91929
28.63	2.92718
28.64	2.92718
28.65	2.92883
28.66	2.92817
28.67	2.93935
28.68	2.93376
28.69	2.93113
28.7	2.93409
28.71	2.92685
28.72	2.93343
28.73	2.92455
28.74	2.92949
28.75	2.93343
28.76	2.9285
28.77	2.92587
28.78	2.92883
28.79	2.92981
28.8	2.93376
28.81	2.93606
28.82	2.9331
28.83	2.93179
28.84	2.93146
28.85	2.93475
28.86	2.93343
28.87	2.9262
28.88	2.92718
28.89	2.93047
28.9	2.92817
28.91	2.92521
28.92	2.93179
28.93	2.93771
28.94	2.9331
28.95	2.92784
28.96	2.92488
28.97	2.92883
28.98	2.92916
28.99	2.92356
29	2.91962
29.01	2.93212
29.02	2.93146
29.03	2.9285
29.04	2.92751
29.05	2.92554
29.06	2.92488
29.07	2.91962
29.08	2.92488
29.09	2.92488
29.1	2.9137
29.11	2.92488
29.12	2.93541
29.13	2.91995
29.14	2.92356
29.15	2.92652
29.16	2.9262
29.17	2.93574
29.18	2.92652
29.19	2.92192
29.2	2.92422
29.21	2.93113
29.22	2.92455
29.23	2.92685
29.24	2.91995
29.25	2.93014
29.26	2.9331
29.27	2.91698
29.28	2.91764
29.29	2.93212
29.3	2.9308
29.31	2.92587
29.32	2.92192
29.33	2.93146
29.34	2.92652
29.35	2.9285
29.36	2.92817
29.37	2.93047
29.38	2.92587
29.39	2.92784
29.4	2.93146
29.41	2.92883
29.42	2.92981
29.43	2.92718
29.44	2.93245
29.45	2.92521
29.46	2.92455
29.47	2.91995
29.48	2.92784
29.49	2.92159
29.5	2.92981
29.51	2.9308
29.52	2.93409
29.53	2.92554
29.54	2.92718
29.55	2.9308
29.56	2.93047
29.57	2.9285
29.58	2.93047
29.59	2.92784
29.6	2.92817
29.61	2.92784
29.62	2.92027
29.63	2.92126
29.64	2.9262
29.65	2.92554
29.66	2.91962
29.67	2.92587
29.68	2.92488
29.69	2.92883
29.7	2.92093
29.71	2.91764
29.72	2.91797
29.73	2.91698
29.74	2.92455
29.75	2.91863
29.76	2.91797
29.77	2.92455
29.78	2.92652
29.79	2.91896
29.8	2.92389
29.81	2.91929
29.82	2.91896
29.83	2.92192
29.84	2.92455
29.85	2.92258
29.86	2.91929
29.87	2.91797
29.88	2.91666
29.89	2.92784
29.9	2.92422
29.91	2.92422
29.92	2.92652
29.93	2.92027
29.94	2.91633
29.95	2.91797
29.96	2.91929
29.97	2.91205
29.98	2.91633
29.99	2.91337
30	2.92159
