"BIO-KINE ASCII FILE"
"_COMMENT"	"MOS-500 Spectrometer"
"_COMMENT"	"Kinetics measurement"
"_COMMENT"	"Y Unit : Volt,  X Unit : s"
"_COMMENT"	"Excitation wavelength : 380 nm"
"_COMMENT"	"Fentes bandwidth =  1 nm"
"_COMMENT"	"HV= 1000V"
"_COMMENT"	"Timebase  1 =  .01 s   5001 pts"
"_SFM"	"SFM-400 /S  Advanced mode"
"_SFM"	"Ratio : S1: 2.5, S2: 0, S3: 0, S4: 1"
"_SFM"	"Content : S1: , S2: , S3: , S4:"
"_SFM"	"Concentration : S1: , S2: , S3: , S4:"
"_SFM"	"Total volume : 209 µl  Flow : 3.5 mL/s"
"_SFM"	"Acquisition start :  10 ms before stop"
"_SFM"	"cuve=FC-15, s1=10 ml , s2=10 ml , s3=10 ml , s4=1.9 ml"
"_UNITX"	"s"
"_UNITY"	"Volt"
"_DELTAX"	0
"_DATA"
1e-300	4.52493
0.01	4.46276
0.02	4.44565
0.03	4.55289
0.04	4.62132
0.05	4.61408
0.06	4.66408
0.07	4.70586
0.08	4.70257
0.09	4.70882
0.1	4.76836
0.11	4.74994
0.12	4.73908
0.13	4.75027
0.14	4.76244
0.15	4.74961
0.16	4.74007
0.17	4.76375
0.18	4.78744
0.19	4.7779
0.2	4.71967
0.21	4.75323
0.22	4.75981
0.23	4.72757
0.24	4.74961
0.25	4.75718
0.26	4.76014
0.27	4.77691
0.28	4.77099
0.29	4.75093
0.3	4.77724
0.31	4.76737
0.32	4.77198
0.33	4.72
0.34	4.77593
0.35	4.78283
0.36	4.76343
0.37	4.72889
0.38	4.76244
0.39	4.73415
0.4	4.73152
0.41	4.7302
0.42	4.73612
0.43	4.74171
0.44	4.71375
0.45	4.74533
0.46	4.75158
0.47	4.74468
0.48	4.77658
0.49	4.75849
0.5	4.71638
0.51	4.73744
0.52	4.75882
0.53	4.75981
0.54	4.78744
0.55	4.73875
0.56	4.71671
0.57	4.75158
0.58	4.6802
0.59	4.70191
0.6	4.72
0.61	4.74796
0.62	4.70191
0.63	4.70158
0.64	4.73974
0.65	4.73645
0.66	4.76277
0.67	4.72954
0.68	4.71342
0.69	4.71211
0.7	4.7325
0.71	4.74599
0.72	4.71342
0.73	4.74171
0.74	4.69369
0.75	4.73546
0.76	4.74698
0.77	4.74402
0.78	4.71935
0.79	4.71836
0.8	4.71375
0.81	4.67198
0.82	4.68316
0.83	4.72889
0.84	4.7154
0.85	4.70421
0.86	4.6654
0.87	4.68941
0.88	4.70882
0.89	4.6598
0.9	4.66441
0.91	4.68974
0.92	4.7029
0.93	4.72033
0.94	4.70849
0.95	4.72921
0.96	4.72198
0.97	4.68086
0.98	4.6825
0.99	4.65158
1	4.68349
1.01	4.72724
1.02	4.68941
1.03	4.68349
1.04	4.67888
1.05	4.70092
1.06	4.66309
1.07	4.65783
1.08	4.68941
1.09	4.7154
1.1	4.70981
1.11	4.67362
1.12	4.68777
1.13	4.66967
1.14	4.69434
1.15	4.67494
1.16	4.66934
1.17	4.69599
1.18	4.68579
1.19	4.67592
1.2	4.69566
1.21	4.66737
1.22	4.63382
1.23	4.67066
1.24	4.65948
1.25	4.6723
1.26	4.67033
1.27	4.67
1.28	4.68217
1.29	4.67099
1.3	4.68974
1.31	4.63053
1.32	4.62066
1.33	4.6779
1.34	4.62197
1.35	4.62197
1.36	4.63447
1.37	4.60257
1.38	4.65191
1.39	4.645
1.4	4.61836
1.41	4.66671
1.42	4.66112
1.43	4.63217
1.44	4.63415
1.45	4.645
1.46	4.68678
1.47	4.67
1.48	4.63776
1.49	4.64171
1.5	4.66671
1.51	4.62099
1.52	4.62395
1.53	4.66441
1.54	4.60783
1.55	4.66967
1.56	4.67461
1.57	4.63875
1.58	4.64434
1.59	4.64467
1.6	4.60816
1.61	4.58941
1.62	4.60289
1.63	4.63908
1.64	4.62164
1.65	4.60355
1.66	4.66112
1.67	4.66046
1.68	4.6325
1.69	4.62888
1.7	4.62362
1.71	4.58085
1.72	4.5825
1.73	4.60947
1.74	4.56638
1.75	4.60421
1.76	4.61243
1.77	4.60849
1.78	4.63053
1.79	4.5802
1.8	4.59072
1.81	4.60585
1.82	4.61408
1.83	4.61638
1.84	4.61803
1.85	4.60092
1.86	4.63513
1.87	4.58743
1.88	4.57756
1.89	4.59763
1.9	4.57987
1.91	4.63809
1.92	4.56835
1.93	4.61243
1.94	4.59566
1.95	4.57033
1.96	4.54072
1.97	4.57559
1.98	4.60585
1.99	4.56309
2	4.58447
2.01	4.59763
2.02	4.58414
2.03	4.58842
2.04	4.56506
2.05	4.60355
2.06	4.60191
2.07	4.60191
2.08	4.56967
2.09	4.52691
2.1	4.57
2.11	4.58085
2.12	4.59566
2.13	4.55618
2.14	4.55454
2.15	4.55849
2.16	4.61441
2.17	4.57066
2.18	4.58118
2.19	4.55881
2.2	4.56276
2.21	4.56638
2.22	4.57197
2.23	4.5746
2.24	4.58612
2.25	4.5496
2.26	4.54763
2.27	4.52362
2.28	4.57
2.29	4.56671
2.3	4.53414
2.31	4.55256
2.32	4.54631
2.33	4.58217
2.34	4.55881
2.35	4.52658
2.36	4.57362
2.37	4.54335
2.38	4.57033
2.39	4.54467
2.4	4.56276
2.41	4.56901
2.42	4.53348
2.43	4.57263
2.44	4.5825
2.45	4.59303
2.46	4.51868
2.47	4.54171
2.48	4.51506
2.49	4.57066
2.5	4.55454
2.51	4.54302
2.52	4.49927
2.53	4.52888
2.54	4.5473
2.55	4.54039
2.56	4.54072
2.57	4.54072
2.58	4.5746
2.59	4.51835
2.6	4.52625
2.61	4.54138
2.62	4.56868
2.63	4.53941
2.64	4.56868
2.65	4.52921
2.66	4.52098
2.67	4.56967
2.68	4.51177
2.69	4.5427
2.7	4.55256
2.71	4.53283
2.72	4.51704
2.73	4.52987
2.74	4.49763
2.75	4.48546
2.76	4.51539
2.77	4.49138
2.78	4.48151
2.79	4.52756
2.8	4.50618
2.81	4.54631
2.82	4.50355
2.83	4.49598
2.84	4.50684
2.85	4.5098
2.86	4.50421
2.87	4.47789
2.88	4.4825
2.89	4.50914
2.9	4.47
2.91	4.5144
2.92	4.52723
2.93	4.48282
2.94	4.5019
2.95	4.4519
2.96	4.50618
2.97	4.4825
2.98	4.47493
2.99	4.51704
3	4.50717
3.01	4.52362
3.02	4.48513
3.03	4.46671
3.04	4.48546
3.05	4.51375
3.06	4.53316
3.07	4.5325
3.08	4.52065
3.09	4.51079
3.1	4.51079
3.11	4.50223
3.12	4.53809
3.13	4.49171
3.14	4.47263
3.15	4.4371
3.16	4.47592
3.17	4.50717
3.18	4.50026
3.19	4.47263
3.2	4.46835
3.21	4.45059
3.22	4.47921
3.23	4.48085
3.24	4.4496
3.25	4.41638
3.26	4.49631
3.27	4.46375
3.28	4.48875
3.29	4.49861
3.3	4.46276
3.31	4.47986
3.32	4.5223
3.33	4.50947
3.34	4.47131
3.35	4.48513
3.36	4.43578
3.37	4.47986
3.38	4.46243
3.39	4.44269
3.4	4.44532
3.41	4.45848
3.42	4.44269
3.43	4.46703
3.44	4.46835
3.45	4.46967
3.46	4.46078
3.47	4.45651
3.48	4.41769
3.49	4.45585
3.5	4.47888
3.51	4.46736
3.52	4.47361
3.53	4.46901
3.54	4.48875
3.55	4.46111
3.56	4.44467
3.57	4.45486
3.58	4.44499
3.59	4.44236
3.6	4.47131
3.61	4.46177
3.62	4.49204
3.63	4.44072
3.64	4.4348
3.65	4.43743
3.66	4.4519
3.67	4.43447
3.68	4.48644
3.69	4.46375
3.7	4.46736
3.71	4.42756
3.72	4.42756
3.73	4.43644
3.74	4.44927
3.75	4.4371
3.76	4.47559
3.77	4.4723
3.78	4.43348
3.79	4.45256
3.8	4.42888
3.81	4.44993
3.82	4.43644
3.83	4.4496
3.84	4.43184
3.85	4.41144
3.86	4.4575
3.87	4.43809
3.88	4.41769
3.89	4.44368
3.9	4.40749
3.91	4.40157
3.92	4.41835
3.93	4.41013
3.94	4.41309
3.95	4.45914
3.96	4.41638
3.97	4.41539
3.98	4.41078
3.99	4.41999
4	4.4575
4.01	4.41769
4.02	4.39664
4.03	4.38611
4.04	4.37197
4.05	4.47
4.06	4.42953
4.07	4.41309
4.08	4.42427
4.09	4.43052
4.1	4.41572
4.11	4.41144
4.12	4.42526
4.13	4.41769
4.14	4.39993
4.15	4.42493
4.16	4.42789
4.17	4.45157
4.18	4.44796
4.19	4.41473
4.2	4.3746
4.21	4.39368
4.22	4.43545
4.23	4.40157
4.24	4.40059
4.25	4.39368
4.26	4.42592
4.27	4.42888
4.28	4.43052
4.29	4.37723
4.3	4.36341
4.31	4.39072
4.32	4.43184
4.33	4.3996
4.34	4.3746
4.35	4.40453
4.36	4.43052
4.37	4.36802
4.38	4.36637
4.39	4.39039
4.4	4.37657
4.41	4.38447
4.42	4.39335
4.43	4.42328
4.44	4.40355
4.45	4.41078
4.46	4.35289
4.47	4.3769
4.48	4.40519
4.49	4.37822
4.5	4.35519
4.51	4.35651
4.52	4.35947
4.53	4.40684
4.54	4.40585
4.55	4.36769
4.56	4.36966
4.57	4.35453
4.58	4.36473
4.59	4.37493
4.6	4.4098
4.61	4.40651
4.62	4.40914
4.63	4.33216
4.64	4.34269
4.65	4.3894
4.66	4.36736
4.67	4.35453
4.68	4.38348
4.69	4.3746
4.7	4.40256
4.71	4.39203
4.72	4.42295
4.73	4.39302
4.74	4.3644
4.75	4.38381
4.76	4.41769
4.77	4.37328
4.78	4.36736
4.79	4.34104
4.8	4.37131
4.81	4.39203
4.82	4.40585
4.83	4.35651
4.84	4.3746
4.85	4.35354
4.86	4.38151
4.87	4.36506
4.88	4.37591
4.89	4.33743
4.9	4.36407
4.91	4.39631
4.92	4.36177
4.93	4.34664
4.94	4.34565
4.95	4.32591
4.96	4.33414
4.97	4.34993
4.98	4.37098
4.99	4.31539
5	4.30782
5.01	4.36901
5.02	4.35124
5.03	4.36933
5.04	4.37789
5.05	4.3394
5.06	4.32427
5.07	4.32756
5.08	4.38578
5.09	4.35716
5.1	4.34861
5.11	4.36539
5.12	4.35387
5.13	4.34137
5.14	4.32986
5.15	4.37032
5.16	4.3621
5.17	4.34762
5.18	4.3167
5.19	4.37558
5.2	4.35552
5.21	4.3746
5.22	4.32723
5.23	4.29104
5.24	4.31407
5.25	4.33315
5.26	4.32756
5.27	4.33775
5.28	4.32262
5.29	4.28381
5.3	4.33512
5.31	4.35914
5.32	4.38381
5.33	4.33907
5.34	4.32032
5.35	4.32196
5.36	4.33446
5.37	4.33052
5.38	4.37789
5.39	4.34894
5.4	4.35223
5.41	4.31835
5.42	4.34598
5.43	4.3269
5.44	4.32887
5.45	4.30486
5.46	4.33743
5.47	4.32262
5.48	4.35979
5.49	4.30716
5.5	4.30914
5.51	4.34697
5.52	4.32098
5.53	4.34466
5.54	4.37657
5.55	4.32657
5.56	4.32065
5.57	4.294
5.58	4.32328
5.59	4.30946
5.6	4.29038
5.61	4.35289
5.62	4.34762
5.63	4.30749
5.64	4.27723
5.65	4.31078
5.66	4.30486
5.67	4.35914
5.68	4.29499
5.69	4.31078
5.7	4.30387
5.71	4.28808
5.72	4.3246
5.73	4.30683
5.74	4.3121
5.75	4.32131
5.76	4.30552
5.77	4.29269
5.78	4.29466
5.79	4.3144
5.8	4.31835
5.81	4.28644
5.82	4.2917
5.83	4.32723
5.84	4.27756
5.85	4.29302
5.86	4.29663
5.87	4.30157
5.88	4.3065
5.89	4.29565
5.9	4.31242
5.91	4.28446
5.92	4.35552
5.93	4.29992
5.94	4.29335
5.95	4.34039
5.96	4.31999
5.97	4.30387
5.98	4.32591
5.99	4.32262
6	4.31966
6.01	4.31867
6.02	4.3519
6.03	4.31637
6.04	4.32854
6.05	4.2713
6.06	4.29038
6.07	4.32953
6.08	4.28249
6.09	4.26473
6.1	4.27525
6.11	4.30716
6.12	4.31374
6.13	4.33973
6.14	4.30157
6.15	4.28117
6.16	4.27262
6.17	4.29006
6.18	4.28611
6.19	4.27657
6.2	4.3292
6.21	4.28841
6.22	4.29269
6.23	4.29992
6.24	4.30223
6.25	4.29071
6.26	4.28413
6.27	4.30453
6.28	4.26308
6.29	4.21637
6.3	4.27953
6.31	4.27887
6.32	4.26571
6.33	4.30585
6.34	4.29335
6.35	4.27328
6.36	4.2588
6.37	4.29894
6.38	4.24696
6.39	4.3065
6.4	4.29433
6.41	4.25058
6.42	4.27821
6.43	4.32657
6.44	4.25979
6.45	4.27591
6.46	4.27361
6.47	4.30683
6.48	4.26538
6.49	4.26802
6.5	4.30256
6.51	4.24729
6.52	4.28052
6.53	4.2292
6.54	4.23051
6.55	4.21505
6.56	4.22492
6.57	4.28907
6.58	4.24532
6.59	4.28052
6.6	4.2417
6.61	4.2542
6.62	4.29236
6.63	4.25848
6.64	4.24926
6.65	4.27723
6.66	4.27854
6.67	4.27591
6.68	4.29729
6.69	4.28709
6.7	4.27394
6.71	4.28611
6.72	4.2713
6.73	4.27229
6.74	4.27427
6.75	4.28183
6.76	4.27986
6.77	4.24565
6.78	4.24663
6.79	4.25255
6.8	4.244
6.81	4.21736
6.82	4.23545
6.83	4.30453
6.84	4.3019
6.85	4.25519
6.86	4.25848
6.87	4.22887
6.88	4.26242
6.89	4.25288
6.9	4.26999
6.91	4.20913
6.92	4.2667
6.93	4.2996
6.94	4.27229
6.95	4.26407
6.96	4.22492
6.97	4.23216
6.98	4.27262
6.99	4.25782
7	4.24532
7.01	4.23907
7.02	4.21308
7.03	4.20255
7.04	4.22032
7.05	4.24894
7.06	4.21242
7.07	4.25058
7.08	4.23413
7.09	4.21867
7.1	4.22887
7.11	4.22591
7.12	4.25124
7.13	4.27295
7.14	4.25058
7.15	4.28183
7.16	4.24861
7.17	4.2542
7.18	4.27788
7.19	4.29367
7.2	4.27098
7.21	4.23216
7.22	4.2713
7.23	4.25979
7.24	4.28315
7.25	4.26341
7.26	4.22196
7.27	4.22558
7.28	4.2292
7.29	4.21407
7.3	4.2588
7.31	4.26078
7.32	4.2417
7.33	4.24894
7.34	4.26177
7.35	4.21637
7.36	4.2144
7.37	4.2588
7.38	4.26999
7.39	4.28282
7.4	4.24236
7.41	4.27624
7.42	4.22591
7.43	4.23051
7.44	4.26802
7.45	4.21012
7.46	4.26736
7.47	4.23841
7.48	4.20157
7.49	4.22558
7.5	4.24038
7.51	4.24894
7.52	4.21801
7.53	4.23973
7.54	4.22361
7.55	4.23644
7.56	4.23084
7.57	4.2167
7.58	4.22032
7.59	4.23973
7.6	4.22229
7.61	4.21275
7.62	4.25058
7.63	4.26209
7.64	4.21143
7.65	4.22722
7.66	4.244
7.67	4.2338
7.68	4.2417
7.69	4.27657
7.7	4.24598
7.71	4.22953
7.72	4.21341
7.73	4.19992
7.74	4.21472
7.75	4.26604
7.76	4.23479
7.77	4.20518
7.78	4.2315
7.79	4.21867
7.8	4.19334
7.81	4.18643
7.82	4.21736
7.83	4.18512
7.84	4.22394
7.85	4.23545
7.86	4.21867
7.87	4.18643
7.88	4.20617
7.89	4.24663
7.9	4.22394
7.91	4.25584
7.92	4.23282
7.93	4.18841
7.94	4.22229
7.95	4.20979
7.96	4.18018
7.97	4.23808
7.98	4.23676
7.99	4.17591
8	4.17262
8.01	4.20551
8.02	4.19334
8.03	4.20486
8.04	4.2338
8.05	4.19071
8.06	4.19828
8.07	4.23545
8.08	4.20979
8.09	4.1792
8.1	4.21143
8.11	4.2644
8.12	4.22097
8.13	4.17953
8.14	4.18413
8.15	4.20058
8.16	4.22361
8.17	4.22196
8.18	4.2338
8.19	4.20749
8.2	4.20453
8.21	4.1917
8.22	4.19104
8.23	4.20617
8.24	4.19038
8.25	4.17821
8.26	4.20157
8.27	4.2338
8.28	4.20782
8.29	4.22262
8.3	4.20749
8.31	4.18643
8.32	4.19104
8.33	4.1838
8.34	4.18874
8.35	4.21143
8.36	4.21143
8.37	4.21768
8.38	4.17657
8.39	4.21045
8.4	4.23709
8.41	4.17854
8.42	4.20321
8.43	4.18775
8.44	4.16505
8.45	4.194
8.46	4.20979
8.47	4.18314
8.48	4.1838
8.49	4.17459
8.5	4.20255
8.51	4.22163
8.52	4.18643
8.53	4.18709
8.54	4.20321
8.55	4.17295
8.56	4.14433
8.57	4.13874
8.58	4.15551
8.59	4.20518
8.6	4.21867
8.61	4.19597
8.62	4.22361
8.63	4.21867
8.64	4.20815
8.65	4.1963
8.66	4.18775
8.67	4.19992
8.68	4.21604
8.69	4.16834
8.7	4.19236
8.71	4.19499
8.72	4.15091
8.73	4.20617
8.74	4.19861
8.75	4.18051
8.76	4.18216
8.77	4.22558
8.78	4.19893
8.79	4.20617
8.8	4.18117
8.81	4.19696
8.82	4.21374
8.83	4.21472
8.84	4.16966
8.85	4.20617
8.86	4.1792
8.87	4.14795
8.88	4.17755
8.89	4.20157
8.9	4.1838
8.91	4.20091
8.92	4.18742
8.93	4.20058
8.94	4.17426
8.95	4.18183
8.96	4.18117
8.97	4.19301
8.98	4.18841
8.99	4.21143
9	4.21933
9.01	4.17591
9.02	4.18742
9.03	4.15518
9.04	4.14466
9.05	4.16308
9.06	4.18874
9.07	4.1861
9.08	4.20617
9.09	4.19104
9.1	4.18578
9.11	4.19466
9.12	4.20453
9.13	4.21867
9.14	4.16242
9.15	4.16834
9.16	4.16933
9.17	4.18413
9.18	4.16703
9.19	4.16143
9.2	4.18216
9.21	4.18282
9.22	4.13117
9.23	4.17426
9.24	4.16045
9.25	4.14334
9.26	4.12229
9.27	4.12623
9.28	4.16505
9.29	4.19597
9.3	4.16834
9.31	4.1667
9.32	4.15518
9.33	4.16735
9.34	4.1838
9.35	4.1588
9.36	4.18216
9.37	4.2042
9.38	4.18808
9.39	4.16703
9.4	4.1236
9.41	4.13117
9.42	4.12426
9.43	4.18939
9.44	4.13577
9.45	4.16209
9.46	4.17887
9.47	4.13314
9.48	4.13808
9.49	4.18512
9.5	4.20189
9.51	4.12689
9.52	4.16439
9.53	4.19038
9.54	4.16242
9.55	4.14005
9.56	4.15716
9.57	4.15222
9.58	4.18808
9.59	4.1713
9.6	4.14137
9.61	4.14926
9.62	4.1792
9.63	4.16505
9.64	4.16637
9.65	4.1315
9.66	4.13545
9.67	4.12558
9.68	4.13084
9.69	4.15781
9.7	4.16999
9.71	4.10551
9.72	4.11571
9.73	4.12656
9.74	4.16341
9.75	4.15946
9.76	4.15124
9.77	4.11867
9.78	4.15058
9.79	4.14268
9.8	4.19038
9.81	4.16176
9.82	4.18018
9.83	4.15156
9.84	4.17788
9.85	4.16012
9.86	4.15485
9.87	4.16966
9.88	4.15025
9.89	4.15124
9.9	4.14893
9.91	4.13084
9.92	4.15617
9.93	4.15683
9.94	4.15551
9.95	4.13216
9.96	4.14926
9.97	4.1611
9.98	4.14992
9.99	4.13906
10	4.16834
10.01	4.15025
10.02	4.12722
10.03	4.14202
10.04	4.18578
10.05	4.1565
10.06	4.15189
10.07	4.16012
10.08	4.17657
10.09	4.19663
10.1	4.17657
10.11	4.13051
10.12	4.16801
10.13	4.16867
10.14	4.13084
10.15	4.11768
10.16	4.15617
10.17	4.1009
10.18	4.19104
10.19	4.14268
10.2	4.16571
10.21	4.1315
10.22	4.10814
10.23	4.119
10.24	4.13972
10.25	4.16143
10.26	4.144
10.27	4.14729
10.28	4.15716
10.29	4.15847
10.3	4.12525
10.31	4.11209
10.32	4.1338
10.33	4.11406
10.34	4.14827
10.35	4.1542
10.36	4.15617
10.37	4.09531
10.38	4.11702
10.39	4.1463
10.4	4.14268
10.41	4.14005
10.42	4.13347
10.43	4.11966
10.44	4.10321
10.45	4.15321
10.46	4.13216
10.47	4.1486
10.48	4.14071
10.49	4.12558
10.5	4.1486
10.51	4.1292
10.52	4.13216
10.53	4.14367
10.54	4.14795
10.55	4.14663
10.56	4.1292
10.57	4.13906
10.58	4.11242
10.59	4.15288
10.6	4.14959
10.61	4.12887
10.62	4.1213
10.63	4.13347
10.64	4.16374
10.65	4.14663
10.66	4.1292
10.67	4.12196
10.68	4.10255
10.69	4.11966
10.7	4.13906
10.71	4.13281
10.72	4.13676
10.73	4.10189
10.74	4.12097
10.75	4.10814
10.76	4.12689
10.77	4.10913
10.78	4.12558
10.79	4.1463
10.8	4.10617
10.81	4.10288
10.82	4.12722
10.83	4.09762
10.84	4.12262
10.85	4.15025
10.86	4.12689
10.87	4.12656
10.88	4.13545
10.89	4.1292
10.9	4.11077
10.91	4.07656
10.92	4.09663
10.93	4.11735
10.94	4.12196
10.95	4.11044
10.96	4.12854
10.97	4.14137
10.98	4.12755
10.99	4.07952
11	4.15518
11.01	4.144
11.02	4.09992
11.03	4.15288
11.04	4.13512
11.05	4.12327
11.06	4.10551
11.07	4.09531
11.08	4.14795
11.09	4.10354
11.1	4.11834
11.11	4.11505
11.12	4.12689
11.13	4.14005
11.14	4.13281
11.15	4.12623
11.16	4.17821
11.17	4.09038
11.18	4.12163
11.19	4.12393
11.2	4.10419
11.21	4.09959
11.22	4.11604
11.23	4.12591
11.24	4.13906
11.25	4.12196
11.26	4.14531
11.27	4.1088
11.28	4.12064
11.29	4.11735
11.3	4.12327
11.31	4.12722
11.32	4.08873
11.33	4.09005
11.34	4.10288
11.35	4.10979
11.36	4.13051
11.37	4.13742
11.38	4.13643
11.39	4.10584
11.4	4.10946
11.41	4.10979
11.42	4.13084
11.43	4.14268
11.44	4.12952
11.45	4.11044
11.46	4.12097
11.47	4.1088
11.48	4.10419
11.49	4.10781
11.5	4.11571
11.51	4.13742
11.52	4.0986
11.53	4.14663
11.54	4.11242
11.55	4.09762
11.56	4.11406
11.57	4.1088
11.58	4.10979
11.59	4.11439
11.6	4.10354
11.61	4.13051
11.62	4.13545
11.63	4.1088
11.64	4.08281
11.65	4.09827
11.66	4.10156
11.67	4.12262
11.68	4.09169
11.69	4.1111
11.7	4.11571
11.71	4.11867
11.72	4.14268
11.73	4.12854
11.74	4.09794
11.75	4.11571
11.76	4.10354
11.77	4.10156
11.78	4.11077
11.79	4.10025
11.8	4.13347
11.81	4.10913
11.82	4.05814
11.83	4.09005
11.84	4.08709
11.85	4.07886
11.86	4.09794
11.87	4.09169
11.88	4.06505
11.89	4.09268
11.9	4.10189
11.91	4.12887
11.92	4.10123
11.93	4.11242
11.94	4.10189
11.95	4.06505
11.96	4.08117
11.97	4.11637
11.98	4.1009
11.99	4.12426
12	4.13314
12.01	4.10058
12.02	4.0986
12.03	4.08742
12.04	4.10058
12.05	4.13314
12.06	4.11044
12.07	4.11044
12.08	4.13051
12.09	4.09202
12.1	4.11801
12.11	4.08314
12.12	4.09169
12.13	4.1315
12.14	4.09104
12.15	4.14959
12.16	4.1236
12.17	4.10716
12.18	4.07623
12.19	4.11044
12.2	4.10288
12.21	4.13512
12.22	4.08479
12.23	4.07327
12.24	4.09104
12.25	4.11143
12.26	4.08446
12.27	4.10321
12.28	4.06932
12.29	4.10913
12.3	4.12952
12.31	4.07558
12.32	4.09005
12.33	4.05715
12.34	4.09071
12.35	4.1065
12.36	4.10683
12.37	4.12459
12.38	4.0986
12.39	4.06242
12.4	4.1065
12.41	4.08906
12.42	4.11406
12.43	4.09038
12.44	4.05979
12.45	4.06077
12.46	4.10156
12.47	4.09071
12.48	4.09794
12.49	4.12854
12.5	4.08314
12.51	4.10748
12.52	4.08544
12.53	4.06439
12.54	4.07919
12.55	4.12426
12.56	4.13216
12.57	4.11669
12.58	4.12064
12.59	4.12492
12.6	4.0986
12.61	4.12097
12.62	4.09235
12.63	4.06932
12.64	4.07492
12.65	4.11341
12.66	4.07985
12.67	4.10913
12.68	4.09992
12.69	4.05979
12.7	4.06307
12.71	4.10781
12.72	4.0736
12.73	4.11308
12.74	4.07459
12.75	4.10748
12.76	4.08051
12.77	4.06604
12.78	4.0565
12.79	4.07558
12.8	4.04334
12.81	4.04268
12.82	4.05847
12.83	4.04893
12.84	4.09169
12.85	4.0838
12.86	4.11472
12.87	4.04465
12.88	4.05781
12.89	4.07229
12.9	4.1111
12.91	4.08018
12.92	4.044
12.93	4.069
12.94	4.06538
12.95	4.10748
12.96	4.10156
12.97	4.06275
12.98	4.09202
12.99	4.04696
13	4.07623
13.01	4.10025
13.02	4.0713
13.03	4.06669
13.04	4.05419
13.05	4.05748
13.06	4.06932
13.07	4.1088
13.08	4.09762
13.09	4.14071
13.1	4.11637
13.11	4.10288
13.12	4.11637
13.13	4.09367
13.14	4.11275
13.15	4.09202
13.16	4.08215
13.17	4.07459
13.18	4.06406
13.19	4.13248
13.2	4.10354
13.21	4.11308
13.22	4.13018
13.23	4.09696
13.24	4.0713
13.25	4.09202
13.26	4.06867
13.27	4.07985
13.28	4.03643
13.29	4.06669
13.3	4.0361
13.31	4.05584
13.32	4.07886
13.33	4.05682
13.34	4.08709
13.35	4.06702
13.36	4.03676
13.37	4.02788
13.38	4.07919
13.39	4.09433
13.4	4.09498
13.41	4.0963
13.42	4.07525
13.43	4.09268
13.44	4.06307
13.45	4.09597
13.46	4.08018
13.47	4.08676
13.48	4.09137
13.49	4.09531
13.5	4.10419
13.51	4.06998
13.52	4.08906
13.53	4.1236
13.54	4.09367
13.55	4.08511
13.56	4.11077
13.57	4.06505
13.58	4.08742
13.59	4.08544
13.6	4.07261
13.61	4.06867
13.62	4.05781
13.63	4.08183
13.64	4.11373
13.65	4.05946
13.66	4.08183
13.67	4.10156
13.68	4.08084
13.69	4.04071
13.7	4.04926
13.71	4.08643
13.72	4.07492
13.73	4.06768
13.74	4.05288
13.75	4.0838
13.76	4.08183
13.77	4.08084
13.78	4.05321
13.79	4.09104
13.8	4.06242
13.81	4.07755
13.82	4.08577
13.83	4.04334
13.84	4.07689
13.85	4.10814
13.86	4.08775
13.87	4.07261
13.88	4.04728
13.89	4.00945
13.9	4.0361
13.91	4.06044
13.92	4.06011
13.93	4.06373
13.94	4.08479
13.95	4.06932
13.96	4.05156
13.97	4.11669
13.98	4.06965
13.99	4.0611
14	4.02393
14.01	4.09367
14.02	4.11966
14.03	4.06702
14.04	4.08314
14.05	4.11472
14.06	4.04268
14.07	4.07064
14.08	4.07229
14.09	4.06834
14.1	4.06406
14.11	4.07294
14.12	4.10847
14.13	4.07558
14.14	4.05847
14.15	4.07656
14.16	4.06998
14.17	4.07327
14.18	4.08906
14.19	4.09169
14.2	4.0861
14.21	4.07229
14.22	4.01998
14.23	4.03709
14.24	4.07426
14.25	4.06044
14.26	4.07919
14.27	4.09071
14.28	4.06242
14.29	4.05814
14.3	4.07163
14.31	4.07294
14.32	4.0384
14.33	4.03018
14.34	4.03478
14.35	4.08248
14.36	4.0463
14.37	4.05617
14.38	4.08906
14.39	4.10551
14.4	4.10354
14.41	4.0565
14.42	4.06143
14.43	4.05255
14.44	4.04432
14.45	4.04038
14.46	4.04761
14.47	4.06176
14.48	4.06209
14.49	4.03807
14.5	4.07492
14.51	4.06143
14.52	4.08413
14.53	4.09597
14.54	4.0861
14.55	4.02919
14.56	4.10716
14.57	4.07854
14.58	4.06011
14.59	4.04564
14.6	4.06867
14.61	4.04761
14.62	4.04465
14.63	4.07064
14.64	4.07623
14.65	4.04663
14.66	4.0463
14.67	4.06242
14.68	4.0588
14.69	4.04728
14.7	4.06702
14.71	4.05353
14.72	4.04663
14.73	4.02656
14.74	4.09794
14.75	4.08446
14.76	4.05781
14.77	4.03051
14.78	4.06406
14.79	4.04827
14.8	4.07261
14.81	4.07064
14.82	4.0588
14.83	4.08511
14.84	4.05518
14.85	4.07261
14.86	4.09498
14.87	4.0634
14.88	4.0884
14.89	4.0611
14.9	4.00222
14.91	4.02524
14.92	4.05386
14.93	4.05617
14.94	4.05847
14.95	4.06143
14.96	4.0611
14.97	4.0759
14.98	4.05913
14.99	4.06801
15	4.02656
15.01	4.05189
15.02	4.08314
15.03	4.09104
15.04	4.04959
15.05	4.05485
15.06	4.03281
15.07	4.04498
15.08	4.06143
15.09	4.05781
15.1	4.01834
15.11	4.01538
15.12	4.03215
15.13	4.06538
15.14	4.07294
15.15	4.05386
15.16	4.04794
15.17	4.09137
15.18	4.06505
15.19	4.08775
15.2	4.04926
15.21	4.05288
15.22	4.07952
15.23	4.06604
15.24	4.06768
15.25	4.06275
15.26	4.06571
15.27	4.05715
15.28	4.03182
15.29	4.04136
15.3	4.02426
15.31	4.05156
15.32	4.02886
15.33	4.02557
15.34	4.04959
15.35	4.05123
15.36	4.04564
15.37	4.05452
15.38	4.04103
15.39	4.04597
15.4	4.0486
15.41	4.06209
15.42	4.069
15.43	4.02919
15.44	4.04334
15.45	4.04696
15.46	4.05946
15.47	4.08873
15.48	4.06143
15.49	4.04761
15.5	4.02459
15.51	4.01867
15.52	4.04465
15.53	4.05847
15.54	4.02656
15.55	4.04301
15.56	4.05288
15.57	4.03807
15.58	4.07492
15.59	4.06735
15.6	4.03413
15.61	4.06373
15.62	4.02821
15.63	4.01176
15.64	4.07886
15.65	4.094
15.66	4.06571
15.67	4.0259
15.68	4.05189
15.69	4.03906
15.7	4.05419
15.71	4.05222
15.72	4.04334
15.73	4.06242
15.74	4.02557
15.75	4.01965
15.76	4.06604
15.77	4.03742
15.78	4.01702
15.79	4.03215
15.8	4.06867
15.81	4.04465
15.82	4.01702
15.83	4.03742
15.84	4.0736
15.85	4.03478
15.86	4.04761
15.87	4.05255
15.88	4.09137
15.89	4.01702
15.9	4.01932
15.91	4.00616
15.92	4.04761
15.93	4.05025
15.94	4.06768
15.95	4.03807
15.96	4.02689
15.97	4.06669
15.98	4.05847
15.99	4.03347
16	4.04103
16.01	4.04663
16.02	4.05255
16.03	4.06998
16.04	4.02623
16.05	4.00123
16.06	4.03939
16.07	4.09564
16.08	4.07854
16.09	4.06011
16.1	4.08577
16.11	4.03511
16.12	4.03248
16.13	4.06998
16.14	4.06406
16.15	4.0486
16.16	4.04038
16.17	4.03413
16.18	4.04893
16.19	4.06735
16.2	4.0611
16.21	4.0611
16.22	4.05386
16.23	4.06044
16.24	4.04761
16.25	4.02985
16.26	4.04498
16.27	4.07426
16.28	4.08544
16.29	4.03215
16.3	3.99399
16.31	4.02985
16.32	4.00781
16.33	4.04038
16.34	4.03149
16.35	4.05814
16.36	4.04005
16.37	4.0713
16.38	4.06538
16.39	4.03413
16.4	4.0213
16.41	4.06932
16.42	4.05025
16.43	4.04071
16.44	4.02722
16.45	4.0486
16.46	4.04696
16.47	4.04367
16.48	4.04663
16.49	4.03577
16.5	4.06801
16.51	4.03149
16.52	4.05485
16.53	4.06044
16.54	4.05321
16.55	4.08972
16.56	4.01932
16.57	4.03117
16.58	4.02623
16.59	4.03676
16.6	4.02853
16.61	4.04103
16.62	4.00485
16.63	4.00978
16.64	4.06176
16.65	4.03906
16.66	4.05057
16.67	4.07327
16.68	4.06307
16.69	4.0361
16.7	4.02163
16.71	3.99926
16.72	4.05682
16.73	4.05979
16.74	4.02788
16.75	4.02064
16.76	4.02952
16.77	4.02294
16.78	4.07722
16.79	4.07755
16.8	4.02163
16.81	4.04926
16.82	4.05814
16.83	4.05485
16.84	4.02623
16.85	4.07031
16.86	4.00616
16.87	4.0384
16.88	4.04136
16.89	4.04893
16.9	4.01505
16.91	4.04432
16.92	4.04728
16.93	4.00814
16.94	4.00616
16.95	4.01143
16.96	4.02426
16.97	4.05123
16.98	4.00847
16.99	4.0361
17	4.05814
17.01	4.0588
17.02	4.06242
17.03	4.0157
17.04	4.01472
17.05	4.05452
17.06	4.02722
17.07	4.04169
17.08	4.05189
17.09	4.03347
17.1	4.02755
17.11	4.01077
17.12	4.0611
17.13	4.03084
17.14	3.99465
17.15	4.01077
17.16	4.02097
17.17	4.05452
17.18	4.0565
17.19	4.05748
17.2	4.04959
17.21	4.06176
17.22	4.01669
17.23	4.03215
17.24	4.04038
17.25	4.02985
17.26	4.05222
17.27	4.01274
17.28	4.01636
17.29	3.98544
17.3	4.02689
17.31	4.0338
17.32	4.0157
17.33	4.04992
17.34	4.00189
17.35	4.04926
17.36	4.06011
17.37	4.04005
17.38	4.01538
17.39	4.01932
17.4	4.04334
17.41	4.02656
17.42	4.04103
17.43	4.07886
17.44	4.02722
17.45	4.0032
17.46	4.0713
17.47	4.05979
17.48	4.0111
17.49	4.02689
17.5	4.01965
17.51	4.03807
17.52	4.05781
17.53	4.044
17.54	4.03478
17.55	4.02064
17.56	4.05419
17.57	4.03906
17.58	3.99334
17.59	4.00551
17.6	4.0236
17.61	4.02919
17.62	4.02755
17.63	4.01965
17.64	4.03446
17.65	4.04498
17.66	4.03149
17.67	4.03807
17.68	4.06538
17.69	4.0088
17.7	4.00649
17.71	4.00123
17.72	4.00781
17.73	4.03117
17.74	4.05847
17.75	4.00748
17.76	3.99893
17.77	4.05189
17.78	4.04597
17.79	4.00485
17.8	4.04728
17.81	4.0486
17.82	4.01768
17.83	4.01801
17.84	4.01669
17.85	4.04103
17.86	4.03972
17.87	4.01011
17.88	4.02788
17.89	4.01636
17.9	4.05057
17.91	4.05353
17.92	4.03347
17.93	4.04301
17.94	4.01768
17.95	4.0509
17.96	4.03939
17.97	4.04005
17.98	4.01669
17.99	3.99663
18	3.97228
18.01	4.01406
18.02	4.04794
18.03	4.03478
18.04	3.99728
18.05	4.00156
18.06	3.98281
18.07	4.01998
18.08	4.00649
18.09	4.03478
18.1	4.04235
18.11	4.04531
18.12	4.04268
18.13	4.0634
18.14	4.05255
18.15	4.01636
18.16	4.02195
18.17	4.07755
18.18	4.05321
18.19	4.02656
18.2	4.01439
18.21	4.00978
18.22	4.01867
18.23	4.04959
18.24	3.99959
18.25	3.99695
18.26	4.02623
18.27	4.01505
18.28	3.99005
18.29	4.02689
18.3	4.00715
18.31	4.00123
18.32	4.00189
18.33	3.99399
18.34	4.02327
18.35	4.0111
18.36	4.02689
18.37	4.00189
18.38	4.00978
18.39	4.06209
18.4	4.0338
18.41	3.98906
18.42	4.02064
18.43	4.03774
18.44	4.00156
18.45	4.00156
18.46	4.02163
18.47	4.0111
18.48	4.02886
18.49	4.00913
18.5	4.02459
18.51	4.05781
18.52	4.03939
18.53	4.02985
18.54	4.03544
18.55	4.04071
18.56	4.02919
18.57	4.01867
18.58	3.99531
18.59	4.00781
18.6	4.0111
18.61	4.04728
18.62	4.0361
18.63	4.02853
18.64	4.01965
18.65	4.03544
18.66	4.01307
18.67	4.04531
18.68	4.04432
18.69	4.00913
18.7	4.00485
18.71	4.00452
18.72	4.03774
18.73	4.03314
18.74	4.02031
18.75	3.99399
18.76	4.0259
18.77	4.00682
18.78	4.01307
18.79	4.0088
18.8	3.99695
18.81	4.02097
18.82	4.03676
18.83	4.0111
18.84	4.02097
18.85	4.02097
18.86	3.9759
18.87	4.0611
18.88	4.01768
18.89	3.97294
18.9	4.00682
18.91	4.02163
18.92	4.01702
18.93	4.04597
18.94	4.01176
18.95	4.05715
18.96	4.01669
18.97	3.99334
18.98	4.00518
18.99	4.01768
19	4.0088
19.01	4.04432
19.02	4.02853
19.03	4.01899
19.04	4.03972
19.05	4.05057
19.06	4.06275
19.07	4.07886
19.08	4.02294
19.09	4.04498
19.1	4.03084
19.11	4.01044
19.12	3.96636
19.13	3.99597
19.14	4.01044
19.15	4.01538
19.16	4.03939
19.17	4.04597
19.18	4.00518
19.19	4.00945
19.2	3.99991
19.21	4.02821
19.22	4.00189
19.23	4.02952
19.24	4.04202
19.25	3.99597
19.26	4.02886
19.27	4.03873
19.28	4.01702
19.29	4.00024
19.3	3.99663
19.31	4.0009
19.32	4.00386
19.33	3.9884
19.34	4.01373
19.35	4.03774
19.36	4.02689
19.37	4.02294
19.38	4.00748
19.39	4.00814
19.4	4.02294
19.41	4.01439
19.42	3.98314
19.43	4.04103
19.44	4.05419
19.45	3.98084
19.46	3.98412
19.47	3.98018
19.48	3.98906
19.49	3.99991
19.5	4.01735
19.51	3.98709
19.52	3.98577
19.53	4.01702
19.54	4.02327
19.55	4.00419
19.56	4.02097
19.57	3.9963
19.58	3.99465
19.59	3.9861
19.6	4.02327
19.61	4.03643
19.62	4.00715
19.63	4.03939
19.64	4.04432
19.65	4.04235
19.66	4.04728
19.67	4.0111
19.68	4.00189
19.69	4.05288
19.7	4.02821
19.71	4.01538
19.72	4.00189
19.73	4.0009
19.74	4.03577
19.75	4.0111
19.76	4.00353
19.77	3.98084
19.78	4.00452
19.79	4.05288
19.8	3.99827
19.81	4.02228
19.82	4.02722
19.83	4.02426
19.84	3.98544
19.85	4.00222
19.86	3.9884
19.87	4.00913
19.88	3.98906
19.89	3.98445
19.9	4.02788
19.91	4.03643
19.92	4.02788
19.93	4.02755
19.94	4.03709
19.95	4.05123
19.96	4.02656
19.97	4.00386
19.98	3.9736
19.99	4.03939
20	3.99465
20.01	4.02393
20.02	4.01011
20.03	3.99334
20.04	3.98939
20.05	4.00156
20.06	3.97853
20.07	4.01307
20.08	4.01801
20.09	4.01439
20.1	4.02163
20.11	3.97294
20.12	4.02524
20.13	4.03084
20.14	4.04761
20.15	4.02064
20.16	4.07525
20.17	4.01439
20.18	3.9986
20.19	4.00452
20.2	4.0009
20.21	4.00551
20.22	3.99202
20.23	4.01373
20.24	4.02064
20.25	3.99202
20.26	3.99794
20.27	4.04827
20.28	4.04334
20.29	3.97952
20.3	3.99794
20.31	4.044
20.32	4.02952
20.33	4.02623
20.34	4.00945
20.35	4.00682
20.36	4.01274
20.37	3.98906
20.38	3.98116
20.39	3.99926
20.4	3.96176
20.41	3.97557
20.42	4.02228
20.43	4.00814
20.44	3.9861
20.45	3.98215
20.46	4.01538
20.47	4.02163
20.48	4.00123
20.49	3.99926
20.5	3.99202
20.51	4.00452
20.52	4.02689
20.53	4.05979
20.54	4.04959
20.55	4.04334
20.56	4.00189
20.57	3.9736
20.58	4.00156
20.59	4.01932
20.6	3.97919
20.61	3.99005
20.62	4.0009
20.63	3.99761
20.64	4.01505
20.65	4.02985
20.66	4.03577
20.67	4.02853
20.68	3.99761
20.69	3.99465
20.7	4.04038
20.71	4.03446
20.72	4.03051
20.73	4.01538
20.74	3.99827
20.75	4.01768
20.76	4.02459
20.77	4.00781
20.78	3.98709
20.79	4.00913
20.8	4.03643
20.81	4.00057
20.82	3.96998
20.83	4.01439
20.84	3.98511
20.85	3.96998
20.86	3.98018
20.87	4.00781
20.88	4.02327
20.89	4.02722
20.9	4.01768
20.91	4.00616
20.92	3.9963
20.93	4.02064
20.94	3.98182
20.95	3.98709
20.96	4.01373
20.97	3.98544
20.98	3.98906
20.99	4.01373
21	3.99136
21.01	3.99334
21.02	4.00024
21.03	4.01867
21.04	3.9907
21.05	3.99399
21.06	4.01406
21.07	4.03873
21.08	4.00945
21.09	3.9907
21.1	3.99334
21.11	4.03281
21.12	4.01143
21.13	3.99926
21.14	4.02985
21.15	3.99663
21.16	4.02755
21.17	4.01044
21.18	3.9782
21.19	4.01176
21.2	4.00255
21.21	3.9986
21.22	4.02689
21.23	4.0032
21.24	4.00419
21.25	4.02064
21.26	4.01636
21.27	4.0032
21.28	3.99334
21.29	4.02557
21.3	3.98215
21.31	3.95978
21.32	3.98807
21.33	3.97097
21.34	3.95847
21.35	3.98215
21.36	4.00057
21.37	4.0009
21.38	4.01932
21.39	4.02952
21.4	4.01998
21.41	4.00978
21.42	4.04136
21.43	4.02524
21.44	4.00123
21.45	4.00748
21.46	4.0111
21.47	4.0213
21.48	4.02656
21.49	4.0032
21.5	4.00452
21.51	4.01406
21.52	4.00156
21.53	4.05715
21.54	4.03182
21.55	4.00419
21.56	4.00945
21.57	3.98314
21.58	4.02261
21.59	4.0157
21.6	4.00682
21.61	4.01538
21.62	3.98412
21.63	3.99695
21.64	4.04367
21.65	4.04136
21.66	4.06571
21.67	4.00419
21.68	3.98215
21.69	4.01439
21.7	4.02294
21.71	4.00814
21.72	4.0009
21.73	3.99597
21.74	4.01143
21.75	4.00024
21.76	4.01669
21.77	4.0157
21.78	4.00123
21.79	3.98182
21.8	4.00057
21.81	3.9713
21.82	3.98182
21.83	4.01932
21.84	4.0009
21.85	3.9986
21.86	3.99663
21.87	3.98314
21.88	4.01011
21.89	3.99695
21.9	3.99531
21.91	3.98939
21.92	3.99564
21.93	3.9736
21.94	3.97787
21.95	4.03215
21.96	4.0111
21.97	3.99761
21.98	4.01011
21.99	4.00978
22	3.97491
22.01	3.97623
22.02	4.00584
22.03	3.96833
22.04	4.00386
22.05	4.00485
22.06	4.02064
22.07	4.01932
22.08	4.01472
22.09	3.99465
22.1	4.0236
22.11	4.03281
22.12	4.01406
22.13	4.03182
22.14	3.9963
22.15	4.02492
22.16	4.03873
22.17	3.98412
22.18	4.01143
22.19	4.00485
22.2	3.97886
22.21	4.01143
22.22	4.00222
22.23	3.98182
22.24	3.98511
22.25	3.98972
22.26	3.99728
22.27	3.98741
22.28	3.97426
22.29	3.96965
22.3	4.01867
22.31	4.0157
22.32	3.98149
22.33	3.99038
22.34	4.00584
22.35	4.01965
22.36	4.03215
22.37	3.98873
22.38	4.03149
22.39	4.01011
22.4	3.99202
22.41	4.0259
22.42	3.99465
22.43	3.98248
22.44	4.02327
22.45	3.98709
22.46	3.99991
22.47	4.02755
22.48	3.99794
22.49	3.9907
22.5	4.02952
22.51	4.02623
22.52	4.00288
22.53	3.98544
22.54	3.99991
22.55	4.01505
22.56	3.9736
22.57	3.96702
22.58	4.05123
22.59	4.04432
22.6	3.98445
22.61	3.95847
22.62	4.00978
22.63	4.00649
22.64	4.01143
22.65	3.99432
22.66	3.99169
22.67	3.99399
22.68	4.03709
22.69	4.0157
22.7	4.01735
22.71	4.01472
22.72	4.02524
22.73	4.02426
22.74	3.99366
22.75	3.97656
22.76	4.04038
22.77	4.0213
22.78	3.96965
22.79	3.95748
22.8	4.00616
22.81	4.01834
22.82	4.02689
22.83	4.04367
22.84	3.98412
22.85	3.96505
22.86	3.9782
22.87	4.03446
22.88	4.01143
22.89	3.96801
22.9	3.97623
22.91	4.01505
22.92	3.98182
22.93	3.99531
22.94	4.00222
22.95	3.98577
22.96	3.98215
22.97	3.97886
22.98	3.96932
22.99	3.97689
23	3.98906
23.01	4.01603
23.02	4.01011
23.03	3.98709
23.04	3.98347
23.05	4.02623
23.06	3.99794
23.07	4.00255
23.08	3.99695
23.09	3.99531
23.1	3.99531
23.11	3.96735
23.12	3.99399
23.13	4.00814
23.14	3.99728
23.15	4.0236
23.16	3.98676
23.17	4.00649
23.18	4.01373
23.19	3.98676
23.2	3.99235
23.21	3.94629
23.22	3.98149
23.23	3.98478
23.24	3.95254
23.25	3.99103
23.26	3.96505
23.27	3.99728
23.28	4.01505
23.29	3.99926
23.3	3.98643
23.31	3.99827
23.32	4.03347
23.33	4.01077
23.34	4.01143
23.35	4.00057
23.36	3.95156
23.37	3.99827
23.38	4.01373
23.39	3.99827
23.4	4.00682
23.41	4.00222
23.42	3.99991
23.43	3.96472
23.44	3.9759
23.45	4.04893
23.46	4.03577
23.47	4.02524
23.48	3.96373
23.49	3.97195
23.5	4.01143
23.51	4.0111
23.52	4.04038
23.53	3.98643
23.54	4.02261
23.55	3.9907
23.56	3.96833
23.57	3.98873
23.58	4.03972
23.59	4.0134
23.6	3.99334
23.61	4.00682
23.62	4.02919
23.63	4.00485
23.64	4.01044
23.65	3.99959
23.66	4.02985
23.67	4.01636
23.68	3.99959
23.69	3.9861
23.7	4.01011
23.71	3.97294
23.72	4.02886
23.73	3.97623
23.74	3.96768
23.75	3.99038
23.76	3.9713
23.77	4.02163
23.78	4.01735
23.79	4.00353
23.8	3.94893
23.81	3.94827
23.82	3.95814
23.83	4.01176
23.84	4.00452
23.85	4.00353
23.86	3.9963
23.87	3.99695
23.88	4.03413
23.89	4.01274
23.9	3.99728
23.91	3.99991
23.92	3.96735
23.93	3.95551
23.94	3.97294
23.95	4.00649
23.96	3.97853
23.97	4.01307
23.98	4.00847
23.99	3.95781
24	3.97064
24.01	4.00551
24.02	3.97952
24.03	3.99366
24.04	3.99136
24.05	3.99432
24.06	4.00222
24.07	3.95945
24.08	3.98478
24.09	3.97162
24.1	3.98084
24.11	4.01274
24.12	3.97557
24.13	4.01899
24.14	3.99926
24.15	3.97853
24.16	4.02755
24.17	3.99169
24.18	3.99893
24.19	3.96472
24.2	3.97097
24.21	3.98478
24.22	3.96603
24.23	3.99761
24.24	3.95551
24.25	3.98577
24.26	3.99564
24.27	3.94235
24.28	3.99169
24.29	4.02492
24.3	3.99235
24.31	3.99498
24.32	4.0009
24.33	3.98939
24.34	3.99728
24.35	3.97097
24.36	4.0009
24.37	3.97393
24.38	3.9782
24.39	3.98116
24.4	3.94432
24.41	3.9759
24.42	3.97656
24.43	3.96208
24.44	3.98939
24.45	3.99235
24.46	3.99827
24.47	4.00222
24.48	4.01242
24.49	3.99136
24.5	3.99169
24.51	4.0111
24.52	4.00518
24.53	4.02459
24.54	3.99038
24.55	4.02064
24.56	3.98149
24.57	4.02492
24.58	4.01899
24.59	3.9986
24.6	3.99893
24.61	3.98906
24.62	3.98577
24.63	4.01735
24.64	4.00913
24.65	3.99268
24.66	3.97985
24.67	4.01538
24.68	4.01998
24.69	3.97722
24.7	3.97853
24.71	4.0111
24.72	3.98676
24.73	4.01899
24.74	3.99564
24.75	3.98643
24.76	3.95847
24.77	3.96965
24.78	4.00057
24.79	3.96143
24.8	3.95748
24.81	3.98248
24.82	3.98577
24.83	3.9986
24.84	3.98149
24.85	3.9884
24.86	4.01307
24.87	3.98445
24.88	3.96998
24.89	3.97755
24.9	3.99959
24.91	4.01768
24.92	3.98544
24.93	4.00616
24.94	3.96537
24.95	3.98676
24.96	3.97919
24.97	3.97064
24.98	3.98445
24.99	3.98544
25	3.97755
25.01	3.98412
25.02	4.00715
25.03	3.99366
25.04	4.03018
25.05	4.0338
25.06	3.98314
25.07	3.96044
25.08	3.95518
25.09	3.94597
25.1	3.99334
25.11	3.99564
25.12	3.98873
25.13	3.98807
25.14	3.98412
25.15	4.0088
25.16	3.96801
25.17	4.00419
25.18	4.02097
25.19	3.97491
25.2	3.94597
25.21	3.95386
25.22	3.98084
25.23	3.9713
25.24	3.98018
25.25	3.97886
25.26	3.98347
25.27	3.99235
25.28	3.98676
25.29	3.97623
25.3	3.99531
25.31	3.97886
25.32	4.02064
25.33	3.98281
25.34	4.01439
25.35	4.01472
25.36	3.9759
25.37	3.95156
25.38	3.97886
25.39	3.97162
25.4	3.95912
25.41	4.01011
25.42	4.00189
25.43	3.98215
25.44	3.99761
25.45	4.0009
25.46	3.9532
25.47	3.96044
25.48	3.95682
25.49	3.99926
25.5	4.02557
25.51	4.01505
25.52	3.99432
25.53	3.98939
25.54	4.00485
25.55	4.00649
25.56	3.98215
25.57	3.97064
25.58	3.96866
25.59	4.02689
25.6	4.00616
25.61	3.98182
25.62	3.96932
25.63	3.97327
25.64	3.97755
25.65	4.01538
25.66	3.98511
25.67	3.99268
25.68	4.00715
25.69	3.96965
25.7	3.98511
25.71	4.00222
25.72	4.00123
25.73	3.98544
25.74	3.97327
25.75	3.9907
25.76	3.96011
25.77	3.95024
25.78	3.9861
25.79	3.94202
25.8	3.95847
25.81	3.97491
25.82	4.00551
25.83	3.99202
25.84	4.0032
25.85	4.03676
25.86	4.00288
25.87	3.97755
25.88	3.98873
25.89	4.01209
25.9	3.99334
25.91	4.00057
25.92	4.01735
25.93	3.97557
25.94	3.97195
25.95	3.97755
25.96	3.92952
25.97	3.99169
25.98	3.9759
25.99	4.00189
26	3.97853
26.01	4.00551
26.02	3.98149
26.03	4.01867
26.04	4.01801
26.05	3.9907
26.06	4.01373
26.07	4.00024
26.08	4.00386
26.09	3.97557
26.1	4.03051
26.11	4.01538
26.12	3.95123
26.13	3.99794
26.14	3.98182
26.15	4.01735
26.16	4.01603
26.17	3.99136
26.18	4.00255
26.19	3.96505
26.2	3.96406
26.21	4.01143
26.22	3.97327
26.23	3.95847
26.24	3.99926
26.25	4.00584
26.26	3.9884
26.27	3.97064
26.28	3.97327
26.29	3.95715
26.3	3.97919
26.31	3.99366
26.32	3.98182
26.33	3.98018
26.34	3.9838
26.35	3.97755
26.36	3.95978
26.37	3.95551
26.38	3.99334
26.39	3.99136
26.4	3.99301
26.41	3.99695
26.42	3.96472
26.43	3.97162
26.44	3.97327
26.45	3.94432
26.46	3.96537
26.47	3.99498
26.48	3.97426
26.49	3.98182
26.5	4.0111
26.51	3.98741
26.52	4.02689
26.53	3.9532
26.54	3.97755
26.55	4.01603
26.56	3.9713
26.57	3.98807
26.58	3.98774
26.59	3.97393
26.6	3.98051
26.61	4.00189
26.62	3.98314
26.63	3.96011
26.64	3.93445
26.65	3.96208
26.66	3.96998
26.67	3.97787
26.68	4.00485
26.69	3.99926
26.7	3.99926
26.71	3.97722
26.72	3.99136
26.73	3.96702
26.74	3.97952
26.75	3.99202
26.76	4.00715
26.77	4.00551
26.78	3.95847
26.79	3.93347
26.8	3.95222
26.81	3.97327
26.82	4.0134
26.83	4.00814
26.84	4.00156
26.85	3.98643
26.86	3.96801
26.87	3.97689
26.88	3.95748
26.89	3.98051
26.9	4.0032
26.91	3.98676
26.92	3.98544
26.93	3.97195
26.94	3.99926
26.95	4.03117
26.96	3.99564
26.97	3.98347
26.98	3.96669
26.99	3.95551
27	3.96241
27.01	3.9782
27.02	3.97853
27.03	4.02064
27.04	4.02689
27.05	4.01143
27.06	4.00748
27.07	3.97195
27.08	4.00814
27.09	3.94926
27.1	3.95583
27.11	3.96603
27.12	3.99597
27.13	4.00189
27.14	3.9634
27.15	4.01669
27.16	3.97722
27.17	4.00353
27.18	3.96768
27.19	3.99827
27.2	4.00485
27.21	3.98248
27.22	3.98544
27.23	3.96472
27.24	3.96702
27.25	4.00584
27.26	3.99268
27.27	3.97031
27.28	4.02294
27.29	4.00288
27.3	3.96965
27.31	3.96011
27.32	3.97886
27.33	3.99531
27.34	3.94926
27.35	3.94103
27.36	3.95222
27.37	4.01669
27.38	4.01867
27.39	3.96406
27.4	3.96176
27.41	3.98215
27.42	3.99432
27.43	3.98643
27.44	3.97195
27.45	4.00057
27.46	3.97919
27.47	3.9838
27.48	4.01603
27.49	3.99695
27.5	3.96965
27.51	4.00781
27.52	3.96768
27.53	3.95978
27.54	3.95386
27.55	3.99301
27.56	3.97064
27.57	3.96505
27.58	3.99465
27.59	4.00518
27.6	4.01932
27.61	3.96176
27.62	4.00189
27.63	4.01143
27.64	4.00485
27.65	4.01242
27.66	4.0236
27.67	4.00255
27.68	3.96472
27.69	3.96077
27.7	3.96899
27.71	3.97064
27.72	3.95222
27.73	4.00288
27.74	3.99465
27.75	3.98314
27.76	3.99366
27.77	4.00649
27.78	4.01735
27.79	3.97393
27.8	4.00847
27.81	4.01702
27.82	4.02985
27.83	4.00913
27.84	3.98116
27.85	3.97195
27.86	3.95485
27.87	3.94333
27.88	3.94728
27.89	3.95485
27.9	3.97886
27.91	3.99794
27.92	3.99926
27.93	3.9759
27.94	4.02097
27.95	3.98741
27.96	3.96833
27.97	4.00913
27.98	3.97689
27.99	3.95649
28	3.98281
28.01	3.9907
28.02	4.01439
28.03	3.97952
28.04	3.97656
28.05	3.99103
28.06	4.00123
28.07	4.00057
28.08	3.97985
28.09	3.94597
28.1	3.97689
28.11	3.98445
28.12	3.97393
28.13	3.98084
28.14	3.98478
28.15	3.98051
28.16	3.9884
28.17	3.96702
28.18	3.96537
28.19	3.98116
28.2	3.98084
28.21	3.99794
28.22	3.99235
28.23	4.0032
28.24	3.96669
28.25	3.98182
28.26	3.97755
28.27	3.99794
28.28	3.95419
28.29	3.96307
28.3	3.97919
28.31	3.96801
28.32	3.93675
28.33	3.95715
28.34	4.01899
28.35	3.98577
28.36	4.00288
28.37	4.00978
28.38	3.97491
28.39	3.98511
28.4	3.99728
28.41	4.00057
28.42	3.9782
28.43	4.01472
28.44	4.02886
28.45	4.01932
28.46	3.96241
28.47	3.98116
28.48	3.95583
28.49	3.97162
28.5	3.98149
28.51	4.00024
28.52	4.01406
28.53	3.96011
28.54	4.01274
28.55	3.99893
28.56	3.99202
28.57	3.9634
28.58	4.01176
28.59	4.01307
28.6	3.97064
28.61	4.02821
28.62	3.98577
28.63	3.96735
28.64	3.9986
28.65	4.00452
28.66	4.01801
28.67	3.97952
28.68	3.98709
28.69	3.98807
28.7	4.00156
28.71	3.99103
28.72	3.97919
28.73	4.01538
28.74	4.00452
28.75	3.97656
28.76	3.98741
28.77	3.98281
28.78	3.96307
28.79	3.94531
28.8	3.9532
28.81	3.98643
28.82	4.02064
28.83	3.99728
28.84	3.98412
28.85	3.95945
28.86	4.00123
28.87	3.99794
28.88	3.99926
28.89	4.01209
28.9	3.94465
28.91	3.97162
28.92	3.97952
28.93	3.97853
28.94	3.98709
28.95	3.97097
28.96	3.98347
28.97	3.97722
28.98	3.95715
28.99	3.95583
29	4.00682
29.01	4.0236
29.02	4.01669
29.03	3.97228
29.04	3.96406
29.05	3.9907
29.06	4.00616
29.07	3.95748
29.08	3.98018
29.09	3.98774
29.1	3.95123
29.11	3.9657
29.12	3.97031
29.13	3.99465
29.14	4.0111
29.15	3.97294
29.16	3.95978
29.17	3.95945
29.18	3.9884
29.19	3.96998
29.2	3.97426
29.21	3.99564
29.22	4.00419
29.23	3.96044
29.24	3.99038
29.25	3.97689
29.26	3.94958
29.27	3.96603
29.28	3.96274
29.29	3.95222
29.3	3.9838
29.31	3.95452
29.32	3.98314
29.33	3.9713
29.34	3.99893
29.35	3.96833
29.36	3.98182
29.37	3.94794
29.38	4.00452
29.39	4.04235
29.4	3.96406
29.41	3.94202
29.42	3.9782
29.43	3.99038
29.44	3.9861
29.45	3.99695
29.46	3.98873
29.47	3.98018
29.48	3.98084
29.49	3.95518
29.5	3.95551
29.51	3.99038
29.52	3.99432
29.53	4.03215
29.54	3.94597
29.55	3.97656
29.56	3.98972
29.57	3.9782
29.58	3.97097
29.59	3.99038
29.6	3.98741
29.61	3.94564
29.62	3.97031
29.63	3.97656
29.64	3.99136
29.65	3.96505
29.66	3.96636
29.67	3.98643
29.68	3.97195
29.69	3.98511
29.7	3.98972
29.71	3.96011
29.72	3.99827
29.73	3.9611
29.74	3.97228
29.75	3.97491
29.76	4.00649
29.77	4.00485
29.78	3.97919
29.79	3.99465
29.8	3.99531
29.81	3.98478
29.82	3.96044
29.83	3.96439
29.84	4.02557
29.85	4.01472
29.86	4.01373
29.87	3.9986
29.88	3.98577
29.89	3.97426
29.9	3.98511
29.91	3.9907
29.92	3.96505
29.93	3.9963
29.94	3.97722
29.95	3.97195
29.96	4.0259
29.97	4.00419
29.98	4.02557
29.99	3.98412
30	3.99103
30.01	3.98182
30.02	3.94695
30.03	3.97097
30.04	4.00024
30.05	3.99761
30.06	3.96636
30.07	3.96176
30.08	3.99531
30.09	3.98807
30.1	3.96603
30.11	4.0088
30.12	3.99991
30.13	3.9907
30.14	3.95748
30.15	3.96307
30.16	3.96801
30.17	3.96603
30.18	3.94958
30.19	3.94629
30.2	3.98972
30.21	3.9532
30.22	3.94991
30.23	3.98182
30.24	4.01735
30.25	3.98709
30.26	3.9782
30.27	3.98051
30.28	3.9838
30.29	3.94432
30.3	3.99005
30.31	3.99728
30.32	3.98873
30.33	3.97886
30.34	4.00682
30.35	3.98412
30.36	3.98939
30.37	3.98018
30.38	3.98215
30.39	3.96669
30.4	3.95978
30.41	3.97459
30.42	3.95156
30.43	3.9861
30.44	3.96965
30.45	4.01011
30.46	3.95748
30.47	3.94333
30.48	3.99959
30.49	3.99728
30.5	3.97031
30.51	3.98676
30.52	3.99728
30.53	3.96373
30.54	3.97261
30.55	4.00255
30.56	3.94169
30.57	3.94728
30.58	3.96965
30.59	3.97755
30.6	3.97722
30.61	3.92886
30.62	3.92491
30.63	3.96998
30.64	4.04334
30.65	3.97228
30.66	3.95649
30.67	4.00551
30.68	3.97919
30.69	3.95715
30.7	3.99202
30.71	3.99728
30.72	4.02426
30.73	3.95518
30.74	3.94794
30.75	3.97623
30.76	3.96307
30.77	3.97985
30.78	3.98741
30.79	3.9782
30.8	4.00616
30.81	3.98018
30.82	3.98906
30.83	3.98281
30.84	3.96208
30.85	3.98051
30.86	3.9884
30.87	4.00353
30.88	4.00189
30.89	3.99301
30.9	3.98051
30.91	3.94531
30.92	3.9986
30.93	3.96866
30.94	3.94268
30.95	3.94926
30.96	3.99794
30.97	3.98412
30.98	3.98215
30.99	3.98906
31	3.98873
31.01	4.00156
31.02	4.00715
31.03	3.96636
31.04	3.96866
31.05	3.97162
31.06	3.98544
31.07	3.95978
31.08	3.92623
31.09	3.97524
31.1	3.97689
31.11	3.98281
31.12	3.97656
31.13	3.96274
31.14	3.9713
31.15	3.94498
31.16	3.99038
31.17	4.02031
31.18	3.98939
31.19	4.00419
31.2	3.97031
31.21	3.96899
31.22	3.96406
31.23	3.92952
31.24	3.99038
31.25	4.00682
31.26	3.99005
31.27	3.98412
31.28	3.96208
31.29	3.95518
31.3	3.95616
31.31	3.97228
31.32	3.96439
31.33	3.95551
31.34	3.97557
31.35	3.96439
31.36	3.96044
31.37	3.92261
31.38	3.96537
31.39	3.9759
31.4	3.97985
31.41	3.96669
31.42	3.95847
31.43	3.99761
31.44	3.97097
31.45	3.95847
31.46	3.94794
31.47	3.95024
31.48	3.95583
31.49	3.96603
31.5	3.97623
31.51	4.00551
31.52	4.02097
31.53	3.96505
31.54	3.95748
31.55	3.9634
31.56	4.00024
31.57	3.96998
31.58	3.95912
31.59	3.9861
31.6	3.9588
31.61	3.97787
31.62	3.93675
31.63	3.97722
31.64	3.98281
31.65	3.93281
31.66	3.96702
31.67	3.9986
31.68	3.97459
31.69	4.00057
31.7	3.99301
31.71	3.96768
31.72	3.95386
31.73	3.99465
31.74	4.01702
31.75	3.96307
31.76	3.96768
31.77	3.97524
31.78	3.97656
31.79	3.95748
31.8	3.99301
31.81	3.93544
31.82	3.99399
31.83	3.96241
31.84	3.94399
31.85	3.9486
31.86	3.97524
31.87	4.00024
31.88	3.95682
31.89	3.94629
31.9	3.95222
31.91	3.98215
31.92	3.97722
31.93	3.93774
31.94	4.00189
31.95	3.95682
31.96	3.9713
31.97	3.97689
31.98	3.98807
31.99	3.96669
32	3.96011
32.01	3.99728
32.02	4.00222
32.03	3.96176
32.04	3.95715
32.05	3.97097
32.06	3.96932
32.07	3.94037
32.08	3.95748
32.09	3.98084
32.1	3.99432
32.11	3.96307
32.12	3.95452
32.13	4.00123
32.14	3.97459
32.15	3.93643
32.16	3.95419
32.17	3.97623
32.18	3.98676
32.19	3.98511
32.2	3.9736
32.21	3.97623
32.22	3.96307
32.23	3.99334
32.24	3.96307
32.25	3.9736
32.26	3.97327
32.27	3.99301
32.28	3.94202
32.29	3.9884
32.3	3.96406
32.31	3.96143
32.32	3.98906
32.33	3.97393
32.34	3.97919
32.35	3.96505
32.36	3.94202
32.37	3.95024
32.38	3.94761
32.39	3.93643
32.4	3.95518
32.41	3.96176
32.42	3.94629
32.43	3.9759
32.44	3.97952
32.45	3.94794
32.46	3.96011
32.47	3.9907
32.48	3.95715
32.49	4.00123
32.5	3.9986
32.51	3.98018
32.52	3.99038
32.53	3.93939
32.54	3.96866
32.55	3.95551
32.56	3.98906
32.57	3.99136
32.58	3.98741
32.59	3.96965
32.6	3.96537
32.61	3.95189
32.62	3.96833
32.63	3.97886
32.64	3.93314
32.65	3.97031
32.66	3.92919
32.67	3.9588
32.68	3.93807
32.69	3.96899
32.7	3.98643
32.71	3.95123
32.72	3.90057
32.73	3.92656
32.74	3.92557
32.75	3.98445
32.76	3.98051
32.77	3.95222
32.78	3.9657
32.79	4.01439
32.8	3.99366
32.81	4.00123
32.82	3.98873
32.83	3.99399
32.84	3.95518
32.85	3.96077
32.86	4.00518
32.87	3.99959
32.88	4.00584
32.89	3.94991
32.9	3.98149
32.91	3.96965
32.92	3.97327
32.93	3.94202
32.94	3.92754
32.95	3.95616
32.96	3.96899
32.97	3.96011
32.98	4.0009
32.99	3.97261
33	3.99893
33.01	3.97985
33.02	3.9611
33.03	3.97327
33.04	3.95682
33.05	3.96439
33.06	3.94564
33.07	3.95649
33.08	3.94136
33.09	3.95156
33.1	3.94662
33.11	3.95616
33.12	3.94893
33.13	3.99991
33.14	3.96702
33.15	3.99959
33.16	3.98018
33.17	3.96669
33.18	3.96866
33.19	3.99893
33.2	3.94235
33.21	3.94926
33.22	3.97228
33.23	3.95715
33.24	4.00024
33.25	3.97459
33.26	3.95847
33.27	3.96603
33.28	4.00057
33.29	3.97919
33.3	3.97162
33.31	3.95057
33.32	3.97886
33.33	3.94004
33.34	3.918
33.35	3.98018
33.36	3.95189
33.37	3.93577
33.38	3.94564
33.39	3.95551
33.4	3.98018
33.41	3.98412
33.42	3.94136
33.43	3.94794
33.44	3.99038
33.45	3.99169
33.46	3.97557
33.47	3.98972
33.48	3.9907
33.49	3.9736
33.5	3.98741
33.51	3.93741
33.52	3.93511
33.53	3.94597
33.54	3.95715
33.55	4.00551
33.56	3.99301
33.57	3.96768
33.58	3.92754
33.59	3.95583
33.6	3.9838
33.61	4.03347
33.62	3.9838
33.63	3.94761
33.64	3.97886
33.65	3.97031
33.66	3.99136
33.67	3.95485
33.68	3.95518
33.69	3.95912
33.7	3.93018
33.71	3.93379
33.72	3.99498
33.73	3.94432
33.74	3.94827
33.75	3.95912
33.76	3.93083
33.77	3.95452
33.78	3.96307
33.79	3.92162
33.8	3.92294
33.81	3.95978
33.82	3.97787
33.83	4.00682
33.84	3.9759
33.85	3.95616
33.86	3.97393
33.87	3.96373
33.88	3.94794
33.89	3.96801
33.9	3.9736
33.91	3.97886
33.92	3.94498
33.93	3.92327
33.94	3.95485
33.95	3.98774
33.96	3.95945
33.97	3.94761
33.98	3.9657
33.99	3.98774
34	3.99268
34.01	3.96472
34.02	3.96899
34.03	4.00814
34.04	3.98182
34.05	3.96833
34.06	3.99169
34.07	3.96373
34.08	3.94728
34.09	3.95189
34.1	3.93939
34.11	3.94629
34.12	3.96143
34.13	3.94498
34.14	3.96669
34.15	3.99761
34.16	3.96011
34.17	3.99695
34.18	3.98807
34.19	4.00945
34.2	3.94827
34.21	3.95551
34.22	3.97162
34.23	3.92623
34.24	3.94794
34.25	3.96472
34.26	3.94695
34.27	3.96505
34.28	3.98709
34.29	3.98511
34.3	3.98412
34.31	3.99465
34.32	3.96307
34.33	3.96241
34.34	3.96044
34.35	3.94432
34.36	4.00748
34.37	4.02327
34.38	3.96801
34.39	4.0009
34.4	4.00748
34.41	3.97656
34.42	3.98445
34.43	3.94662
34.44	3.96176
34.45	3.99005
34.46	3.96307
34.47	3.97327
34.48	3.97393
34.49	3.99136
34.5	3.95781
34.51	3.92656
34.52	4.00353
34.53	3.94333
34.54	3.9611
34.55	3.96735
34.56	3.98248
34.57	3.97426
34.58	3.94399
34.59	3.95551
34.6	3.97656
34.61	3.95057
34.62	3.93774
34.63	3.96833
34.64	3.97952
34.65	3.96702
34.66	4.01867
34.67	4.03149
34.68	3.98281
34.69	3.98149
34.7	3.96176
34.71	3.97162
34.72	3.97195
34.73	3.96307
34.74	3.9782
34.75	3.95649
34.76	3.97886
34.77	3.95945
34.78	3.95682
34.79	3.94531
34.8	3.98643
34.81	3.96044
34.82	3.9384
34.83	3.9407
34.84	3.96208
34.85	3.97261
34.86	3.96439
34.87	3.9588
34.88	3.96176
34.89	3.93741
34.9	3.94465
34.91	3.94564
34.92	3.97524
34.93	3.97426
34.94	3.93412
34.95	3.92754
34.96	3.95551
34.97	3.92985
34.98	3.96077
34.99	3.96735
35	3.94926
35.01	3.96274
35.02	3.97689
35.03	3.94037
35.04	3.94728
35.05	3.97294
35.06	3.97557
35.07	3.97557
35.08	3.97656
35.09	3.96998
35.1	3.97985
35.11	3.97294
35.12	3.97294
35.13	3.9963
35.14	3.96176
35.15	3.96636
35.16	4.01472
35.17	3.99235
35.18	3.97327
35.19	3.97327
35.2	3.94991
35.21	3.93939
35.22	3.95748
35.23	3.93544
35.24	3.97919
35.25	3.96472
35.26	3.97195
35.27	3.97491
35.28	4.00682
35.29	3.97886
35.3	3.97261
35.31	3.95518
35.32	3.94004
35.33	4.01538
35.34	3.97459
35.35	3.97459
35.36	3.98149
35.37	3.95715
35.38	3.99169
35.39	4.02327
35.4	3.96143
35.41	3.99235
35.42	3.97393
35.43	3.99597
35.44	3.99169
35.45	3.97919
35.46	3.99366
35.47	3.9907
35.48	4.01176
35.49	3.9486
35.5	3.99893
35.51	3.96833
35.52	3.98149
35.53	3.98281
35.54	3.94728
35.55	3.95419
35.56	3.98116
35.57	3.94465
35.58	3.93972
35.59	3.95715
35.6	3.9486
35.61	3.99366
35.62	3.96768
35.63	3.96373
35.64	3.93478
35.65	3.95551
35.66	3.9907
35.67	3.92458
35.68	3.90254
35.69	3.94399
35.7	3.97853
35.71	3.97952
35.72	4.00353
35.73	3.96241
35.74	3.95748
35.75	3.99301
35.76	3.96932
35.77	3.92656
35.78	3.95616
35.79	3.94366
35.8	3.94004
35.81	3.95912
35.82	3.9611
35.83	4.00748
35.84	4.00386
35.85	3.95518
35.86	3.94926
35.87	3.98676
35.88	4.01768
35.89	4.0032
35.9	3.94728
35.91	3.95452
35.92	4.0088
35.93	3.99597
35.94	3.97195
35.95	3.95781
35.96	3.97327
35.97	3.96241
35.98	3.9986
35.99	3.98215
36	3.92294
36.01	3.93314
36.02	3.94761
36.03	3.96176
36.04	3.95189
36.05	3.93741
36.06	3.96603
36.07	3.96176
36.08	3.96011
36.09	3.96439
36.1	3.94629
36.11	3.94629
36.12	3.96801
36.13	3.96241
36.14	3.97491
36.15	3.98347
36.16	3.97985
36.17	3.97886
36.18	3.93774
36.19	3.94037
36.2	3.99268
36.21	3.96439
36.22	3.99103
36.23	3.98248
36.24	3.96537
36.25	3.9634
36.26	3.97952
36.27	3.9657
36.28	3.93708
36.29	3.96176
36.3	3.93281
36.31	3.98544
36.32	3.98116
36.33	3.9611
36.34	3.94564
36.35	3.96143
36.36	3.95222
36.37	3.94498
36.38	3.9907
36.39	3.99399
36.4	3.98051
36.41	3.93675
36.42	3.96143
36.43	3.95715
36.44	3.92425
36.45	3.93182
36.46	3.94629
36.47	3.99926
36.48	4.00616
36.49	3.96176
36.5	3.95452
36.51	3.9532
36.52	3.9838
36.53	4.03149
36.54	4.01669
36.55	3.96537
36.56	3.96373
36.57	3.92656
36.58	3.96801
36.59	3.94794
36.6	3.9588
36.61	3.97952
36.62	3.93675
36.63	3.94827
36.64	3.94991
36.65	3.96208
36.66	3.98314
36.67	3.97261
36.68	3.94629
36.69	3.96439
36.7	3.95254
36.71	3.9611
36.72	3.9407
36.73	3.97195
36.74	3.9736
36.75	3.95616
36.76	3.96176
36.77	3.98051
36.78	3.96603
36.79	3.95287
36.8	3.97919
36.81	3.98215
36.82	3.94926
36.83	3.96472
36.84	3.96965
36.85	3.9361
36.86	3.95945
36.87	3.96241
36.88	3.97656
36.89	3.97722
36.9	3.9611
36.91	3.92425
36.92	3.97623
36.93	3.98116
36.94	3.97195
36.95	3.95419
36.96	3.95748
36.97	3.96373
36.98	3.9532
36.99	3.94465
37	3.97886
37.01	3.98182
37.02	3.96208
37.03	3.97294
37.04	3.94333
37.05	3.96472
37.06	3.96899
37.07	3.97722
37.08	3.9736
37.09	3.9759
37.1	4.01209
37.11	3.97853
37.12	3.93873
37.13	3.94728
37.14	3.96439
37.15	3.96077
37.16	3.95616
37.17	3.93807
37.18	3.94662
37.19	3.94301
37.2	3.95222
37.21	3.96143
37.22	3.98939
37.23	3.95123
37.24	3.94399
37.25	3.9407
37.26	3.95551
37.27	3.96965
37.28	3.92064
37.29	3.94926
37.3	3.95386
37.31	3.92031
37.32	3.92195
37.33	3.95945
37.34	3.9713
37.35	3.96537
37.36	3.94564
37.37	3.98445
37.38	3.98215
37.39	3.96735
37.4	3.96702
37.41	3.96044
37.42	3.94991
37.43	3.93412
37.44	3.98445
37.45	4.0088
37.46	3.97886
37.47	3.98347
37.48	3.95353
37.49	3.95156
37.5	3.97656
37.51	3.99005
37.52	3.98774
37.53	3.97426
37.54	3.96143
37.55	3.99235
37.56	3.93774
37.57	3.96044
37.58	3.96702
37.59	3.99103
37.6	3.97985
37.61	3.99169
37.62	3.98116
37.63	3.94893
37.64	3.95978
37.65	3.98149
37.66	3.93939
37.67	3.98939
37.68	3.95386
37.69	3.93906
37.7	3.93116
37.71	4.00715
37.72	3.96373
37.73	3.94794
37.74	3.92393
37.75	3.95222
37.76	3.97031
37.77	3.9509
37.78	3.99695
37.79	3.99268
37.8	3.98709
37.81	3.96241
37.82	3.97524
37.83	3.97228
37.84	3.9657
37.85	3.96702
37.86	3.98248
37.87	3.96373
37.88	3.95912
37.89	4.00288
37.9	4.00847
37.91	3.98412
37.92	3.97689
37.93	3.94432
37.94	3.97228
37.95	3.97491
37.96	3.96965
37.97	3.95386
37.98	3.95616
37.99	3.97393
38	3.97426
38.01	3.92952
38.02	3.94169
38.03	3.99728
38.04	3.95551
38.05	3.91439
38.06	3.95847
38.07	3.93379
38.08	3.93939
38.09	3.9509
38.1	3.96077
38.11	3.98643
38.12	3.98544
38.13	3.99761
38.14	3.98248
38.15	3.93412
38.16	3.98281
38.17	3.96373
38.18	3.94136
38.19	3.95912
38.2	3.95156
38.21	3.95748
38.22	3.99202
38.23	3.98709
38.24	3.96636
38.25	3.94662
38.26	3.96505
38.27	3.95386
38.28	3.95419
38.29	3.97787
38.3	3.95518
38.31	3.93807
38.32	3.97755
38.33	3.94432
38.34	3.94333
38.35	4.0009
38.36	3.95847
38.37	3.9611
38.38	3.92722
38.39	3.93906
38.4	3.95485
38.41	3.99169
38.42	3.99827
38.43	3.98248
38.44	3.95189
38.45	3.9486
38.46	3.92129
38.47	3.9532
38.48	3.97031
38.49	3.93248
38.5	3.93412
38.51	3.9305
38.52	3.95353
38.53	3.97031
38.54	3.95485
38.55	3.9361
38.56	3.92031
38.57	3.94136
38.58	3.97031
38.59	3.92722
38.6	3.94037
38.61	3.94958
38.62	3.92425
38.63	3.92524
38.64	3.95748
38.65	3.9782
38.66	3.94432
38.67	3.98478
38.68	3.97853
38.69	3.98018
38.7	3.98281
38.71	3.94695
38.72	3.9634
38.73	3.93774
38.74	3.94432
38.75	3.97557
38.76	3.95254
38.77	3.9838
38.78	4.00057
38.79	3.99531
38.8	3.96208
38.81	3.9907
38.82	3.98347
38.83	3.99235
38.84	3.93215
38.85	3.99959
38.86	3.98478
38.87	3.95123
38.88	3.95781
38.89	3.95254
38.9	3.95353
38.91	3.98643
38.92	3.98972
38.93	3.97524
38.94	3.97097
38.95	3.99334
38.96	3.96241
38.97	3.98084
38.98	3.94728
38.99	3.94465
39	3.96044
39.01	3.94991
39.02	3.9907
39.03	3.99169
39.04	3.98084
39.05	3.93972
39.06	3.93708
39.07	3.94893
39.08	3.95189
39.09	3.96932
39.1	3.98215
39.11	3.98577
39.12	3.97886
39.13	3.98116
39.14	4.02656
39.15	4.00288
39.16	4.01242
39.17	3.96406
39.18	3.96208
39.19	3.92393
39.2	3.93643
39.21	3.94564
39.22	3.96176
39.23	3.97985
39.24	3.96472
39.25	3.95386
39.26	3.97294
39.27	3.94893
39.28	3.95222
39.29	3.94794
39.3	3.94037
39.31	3.9486
39.32	3.97162
39.33	3.98281
39.34	3.99695
39.35	3.93939
39.36	3.95452
39.37	3.95682
39.38	3.97853
39.39	3.94498
39.4	3.96274
39.41	3.95419
39.42	3.95057
39.43	3.96307
39.44	3.97623
39.45	3.9963
39.46	3.98873
39.47	3.96899
39.48	3.94564
39.49	3.97426
39.5	3.91669
39.51	3.93248
39.52	3.96833
39.53	3.96768
39.54	3.98511
39.55	3.93478
39.56	3.98084
39.57	3.95485
39.58	3.99169
39.59	3.99005
39.6	3.95419
39.61	3.96505
39.62	3.97064
39.63	3.97689
39.64	3.94629
39.65	3.96537
39.66	3.9259
39.67	3.94629
39.68	3.95847
39.69	3.96176
39.7	3.93215
39.71	3.93083
39.72	3.93577
39.73	3.92722
39.74	3.96965
39.75	3.95978
39.76	3.95057
39.77	3.98182
39.78	3.97952
39.79	3.97755
39.8	3.94432
39.81	3.95978
39.82	3.96669
39.83	3.93577
39.84	3.93018
39.85	3.95583
39.86	3.99663
39.87	3.95419
39.88	3.95945
39.89	3.93873
39.9	3.93182
39.91	3.94004
39.92	3.96505
39.93	3.93544
39.94	3.94136
39.95	3.96439
39.96	3.93248
39.97	3.98051
39.98	3.97064
39.99	3.97853
40	3.99695
40.01	3.95912
40.02	3.98215
40.03	3.98544
40.04	3.9884
40.05	3.96702
40.06	3.97623
40.07	3.99268
40.08	3.9782
40.09	3.98412
40.1	3.96735
40.11	3.97886
40.12	3.94728
40.13	3.94498
40.14	3.92656
40.15	3.9782
40.16	3.9838
40.17	3.96702
40.18	3.94695
40.19	3.93873
40.2	3.94958
40.21	3.96439
40.22	3.98511
40.23	3.93116
40.24	3.95945
40.25	3.95945
40.26	3.96801
40.27	3.95057
40.28	3.95419
40.29	3.96274
40.3	3.95123
40.31	3.99597
40.32	3.92689
40.33	3.95551
40.34	3.97228
40.35	3.96406
40.36	3.94893
40.37	3.95353
40.38	3.95814
40.39	3.94926
40.4	3.93215
40.41	3.95123
40.42	3.98544
40.43	3.92228
40.44	3.92162
40.45	3.95616
40.46	3.94333
40.47	3.94564
40.48	3.97294
40.49	3.98741
40.5	3.97755
40.51	3.9134
40.52	3.94235
40.53	3.94531
40.54	3.95452
40.55	3.99136
40.56	3.96965
40.57	3.94004
40.58	3.9657
40.59	3.95189
40.6	3.9588
40.61	3.9407
40.62	3.97228
40.63	3.97195
40.64	3.96208
40.65	3.97524
40.66	3.9884
40.67	3.98412
40.68	3.96735
40.69	3.98182
40.7	3.96833
40.71	3.96439
40.72	3.94432
40.73	3.94037
40.74	3.98314
40.75	3.9713
40.76	3.97557
40.77	3.94695
40.78	3.9713
40.79	3.97426
40.8	3.96702
40.81	3.96768
40.82	3.96274
40.83	3.92853
40.84	3.94564
40.85	3.94629
40.86	3.99366
40.87	3.95978
40.88	3.97952
40.89	3.99103
40.9	3.9532
40.91	3.93939
40.92	3.93807
40.93	3.93873
40.94	3.93544
40.95	3.94399
40.96	3.98709
40.97	3.98511
40.98	3.93248
40.99	3.93807
41	3.96899
41.01	4.02064
41.02	4.00024
41.03	3.92294
41.04	3.96307
41.05	3.97459
41.06	3.96439
41.07	3.94432
41.08	3.96866
41.09	3.9907
41.1	3.93972
41.11	3.95123
41.12	3.99235
41.13	3.9588
41.14	3.94498
41.15	3.91965
41.16	3.95847
41.17	3.93774
41.18	3.94498
41.19	3.98018
41.2	4.00024
41.21	3.97656
41.22	3.93083
41.23	3.93643
41.24	3.93215
41.25	3.94366
41.26	3.92656
41.27	3.98643
41.28	3.97689
41.29	3.9157
41.3	3.92524
41.31	3.95156
41.32	3.94498
41.33	3.92886
41.34	3.93741
41.35	3.94366
41.36	3.97491
41.37	3.98215
41.38	3.95419
41.39	3.98445
41.4	3.96505
41.41	3.93281
41.42	3.93873
41.43	3.92524
41.44	3.92853
41.45	3.93116
41.46	3.97722
41.47	3.95024
41.48	3.95485
41.49	3.97195
41.5	3.94202
41.51	3.93018
41.52	3.99169
41.53	3.95715
41.54	3.93741
41.55	3.9782
41.56	3.96044
41.57	3.95682
41.58	3.98445
41.59	3.97294
41.6	3.93708
41.61	3.93314
41.62	3.9384
41.63	3.98972
41.64	3.98116
41.65	3.96472
41.66	3.95156
41.67	3.9884
41.68	3.94004
41.69	3.92985
41.7	3.94695
41.71	3.94794
41.72	3.94695
41.73	3.97689
41.74	3.93675
41.75	3.91636
41.76	3.96176
41.77	3.95254
41.78	3.94597
41.79	3.96866
41.8	3.96603
41.81	3.9486
41.82	3.96176
41.83	3.9736
41.84	3.97787
41.85	3.94136
41.86	3.95912
41.87	3.96307
41.88	3.9657
41.89	3.94136
41.9	3.98314
41.91	3.98084
41.92	3.94991
41.93	3.97623
41.94	3.97097
41.95	3.95123
41.96	3.95287
41.97	3.94169
41.98	3.98906
41.99	3.98051
42	3.97491
42.01	3.94004
42.02	3.98347
42.03	3.99334
42.04	3.99169
42.05	3.96899
42.06	3.97919
42.07	3.95847
42.08	3.96143
42.09	3.97162
42.1	3.92853
42.11	3.93741
42.12	3.95287
42.13	3.95551
42.14	3.95419
42.15	3.94399
42.16	3.90024
42.17	3.98873
42.18	4.01538
42.19	3.96373
42.2	3.97162
42.21	3.9759
42.22	3.98709
42.23	3.93314
42.24	3.90814
42.25	3.95583
42.26	3.97426
42.27	4.0157
42.28	3.94301
42.29	3.97787
42.3	3.96833
42.31	3.95682
42.32	3.99531
42.33	3.94761
42.34	3.9259
42.35	3.9532
42.36	3.95452
42.37	3.95649
42.38	3.91702
42.39	3.95189
42.4	3.96505
42.41	3.97327
42.42	3.94794
42.43	3.93741
42.44	3.93544
42.45	3.93511
42.46	3.98709
42.47	3.96801
42.48	3.91307
42.49	3.97426
42.5	3.98314
42.51	3.94761
42.52	3.93774
42.53	3.9532
42.54	3.94958
42.55	3.91866
42.56	3.94037
42.57	3.95912
42.58	3.97426
42.59	3.92886
42.6	3.97426
42.61	3.98051
42.62	3.95748
42.63	3.97426
42.64	3.96899
42.65	3.96044
42.66	3.97097
42.67	3.97853
42.68	3.96833
42.69	3.94333
42.7	3.93675
42.71	3.96472
42.72	3.97393
42.73	3.98577
42.74	3.98182
42.75	3.93445
42.76	3.94037
42.77	3.93972
42.78	3.92952
42.79	3.95616
42.8	3.95847
42.81	3.98577
42.82	3.94564
42.83	3.9884
42.84	3.95254
42.85	3.96208
42.86	3.93972
42.87	3.94597
42.88	3.97853
42.89	3.96044
42.9	3.93445
42.91	3.94794
42.92	3.95353
42.93	3.94991
42.94	3.9236
42.95	3.92886
42.96	3.93116
42.97	3.93675
42.98	3.96011
42.99	3.98807
43	3.98018
43.01	3.93708
43.02	3.98018
43.03	3.93643
43.04	3.95057
43.05	3.94893
43.06	3.96307
43.07	3.93215
43.08	3.95057
43.09	3.97491
43.1	4.00551
43.11	4.00452
43.12	3.95024
43.13	3.94235
43.14	3.96373
43.15	3.96735
43.16	3.95222
43.17	3.93873
43.18	3.92524
43.19	3.96899
43.2	3.97524
43.21	3.92754
43.22	3.91373
43.23	3.92853
43.24	3.94893
43.25	3.93972
43.26	3.94333
43.27	3.95912
43.28	3.96702
43.29	3.94498
43.3	3.9134
43.31	3.91735
43.32	3.96669
43.33	3.94366
43.34	3.95386
43.35	3.99103
43.36	3.97755
43.37	3.97261
43.38	3.94629
43.39	3.95419
43.4	3.96176
43.41	3.91307
43.42	3.95419
43.43	3.96603
43.44	3.93741
43.45	3.99366
43.46	3.98741
43.47	3.96537
43.48	3.97294
43.49	3.95616
43.5	3.918
43.51	3.95551
43.52	3.95649
43.53	3.95847
43.54	3.94169
43.55	3.9532
43.56	3.95452
43.57	3.96274
43.58	3.95189
43.59	3.94827
43.6	3.96274
43.61	3.92919
43.62	3.96735
43.63	3.98544
43.64	3.95156
43.65	3.90814
43.66	3.93906
43.67	3.98412
43.68	3.94958
43.69	3.96537
43.7	3.95156
43.71	3.93478
43.72	3.95123
43.73	3.91307
43.74	3.94794
43.75	3.9759
43.76	3.95814
43.77	3.96176
43.78	3.91406
43.79	3.93314
43.8	3.99991
43.81	3.9361
43.82	3.93741
43.83	3.98347
43.84	3.97689
43.85	3.96932
43.86	3.97722
43.87	3.94564
43.88	3.90715
43.89	3.95847
43.9	3.95287
43.91	3.93149
43.92	3.95222
43.93	3.95616
43.94	3.98741
43.95	3.98018
43.96	3.97261
43.97	3.97064
43.98	3.95189
43.99	3.96011
44	3.97228
44.01	3.97294
44.02	3.97031
44.03	3.98051
44.04	3.92952
44.05	3.918
44.06	3.93906
44.07	3.95189
44.08	3.94268
44.09	3.9736
44.1	3.94268
44.11	3.93478
44.12	3.96143
44.13	3.95287
44.14	3.96735
44.15	3.94662
44.16	3.9657
44.17	3.96406
44.18	3.9361
44.19	3.93083
44.2	3.95419
44.21	3.98149
44.22	3.96965
44.23	3.90419
44.24	3.9032
44.25	3.96406
44.26	3.93741
44.27	3.93906
44.28	3.9384
44.29	3.95682
44.3	3.94004
44.31	3.98741
44.32	3.96932
44.33	3.95452
44.34	3.92031
44.35	3.96472
44.36	3.92985
44.37	3.91439
44.38	3.95156
44.39	3.94465
44.4	3.95616
44.41	3.94794
44.42	3.95551
44.43	3.92623
44.44	3.91406
44.45	3.96801
44.46	3.97985
44.47	3.94465
44.48	3.97722
44.49	3.95682
44.5	3.94695
44.51	3.93774
44.52	3.94202
44.53	3.9134
44.54	3.95682
44.55	3.92425
44.56	3.97491
44.57	3.94728
44.58	3.94531
44.59	3.93544
44.6	3.95254
44.61	3.95781
44.62	3.96373
44.63	3.92557
44.64	3.92886
44.65	3.91899
44.66	3.95287
44.67	3.94531
44.68	3.90879
44.69	3.93314
44.7	3.93445
44.71	3.92985
44.72	3.96669
44.73	3.95057
44.74	3.93741
44.75	3.94004
44.76	3.91833
44.77	3.99268
44.78	3.9861
44.79	3.93939
44.8	3.9361
44.81	3.95583
44.82	3.96998
44.83	4.00715
44.84	3.92787
44.85	3.94301
44.86	3.94662
44.87	3.96537
44.88	3.95912
44.89	3.99399
44.9	3.94728
44.91	3.91143
44.92	3.94629
44.93	3.95847
44.94	3.99827
44.95	3.99301
44.96	3.95485
44.97	3.92754
44.98	3.92656
44.99	3.96505
45	3.92195
45.01	3.91406
45.02	3.90748
45.03	3.96965
45.04	3.96373
45.05	3.94301
45.06	3.94103
45.07	3.95814
45.08	3.95649
45.09	3.92886
45.1	3.95616
45.11	3.97886
45.12	3.94235
45.13	3.92129
45.14	3.96406
45.15	4.00781
45.16	3.97228
45.17	3.94301
45.18	3.93972
45.19	3.93182
45.2	3.96801
45.21	3.93412
45.22	3.91373
45.23	3.96176
45.24	3.9759
45.25	3.9759
45.26	3.95682
45.27	3.92195
45.28	3.94399
45.29	3.9657
45.3	3.94268
45.31	3.9361
45.32	3.92557
45.33	3.94728
45.34	3.95748
45.35	3.97952
45.36	3.95386
45.37	3.95715
45.38	3.94958
45.39	3.9713
45.4	3.95748
45.41	3.94465
45.42	3.93972
45.43	3.98347
45.44	3.99268
45.45	3.97656
45.46	4.01867
45.47	3.97195
45.48	3.95978
45.49	3.9634
45.5	3.96866
45.51	3.89794
45.52	3.90254
45.53	3.97886
45.54	3.94695
45.55	3.88741
45.56	3.95847
45.57	3.95978
45.58	3.91866
45.59	3.91208
45.6	3.90353
45.61	3.92228
45.62	3.95057
45.63	3.94761
45.64	3.93873
45.65	3.92919
45.66	3.96965
45.67	3.97919
45.68	3.93675
45.69	3.93708
45.7	3.96636
45.71	3.97985
45.72	3.93774
45.73	3.93215
45.74	3.8861
45.75	3.93281
45.76	3.92294
45.77	3.96176
45.78	3.95123
45.79	3.94827
45.8	3.95814
45.81	3.9282
45.82	3.9305
45.83	3.94629
45.84	3.9407
45.85	3.95814
45.86	3.95222
45.87	3.96965
45.88	3.99564
45.89	3.97294
45.9	3.99103
45.91	3.99235
45.92	3.96899
45.93	3.92294
45.94	3.93675
45.95	3.94366
45.96	3.95781
45.97	3.96077
45.98	3.97327
45.99	3.95024
46	3.93281
46.01	3.96077
46.02	3.92623
46.03	3.94991
46.04	3.97952
46.05	3.97162
46.06	3.95024
46.07	3.93445
46.08	3.93544
46.09	3.97722
46.1	3.95781
46.11	3.9861
46.12	3.95781
46.13	3.94366
46.14	3.94169
46.15	3.93577
46.16	3.98215
46.17	3.95386
46.18	3.95682
46.19	3.91702
46.2	3.93248
46.21	3.98709
46.22	4.00649
46.23	3.97985
46.24	3.95748
46.25	3.95254
46.26	3.96472
46.27	3.96636
46.28	3.95485
46.29	3.96307
46.3	3.96143
46.31	3.94728
46.32	3.96603
46.33	3.94629
46.34	3.94531
46.35	3.98643
46.36	3.93149
46.37	3.91044
46.38	3.94564
46.39	3.94662
46.4	3.96965
46.41	3.93149
46.42	3.90846
46.43	3.93116
46.44	3.96833
46.45	3.93807
46.46	3.95386
46.47	3.9588
46.48	3.96176
46.49	3.93511
46.5	3.95814
46.51	3.9963
46.52	3.96044
46.53	3.95024
46.54	3.94958
46.55	3.96899
46.56	3.92722
46.57	3.92031
46.58	3.94728
46.59	3.95189
46.6	3.90024
46.61	3.93873
46.62	3.92195
46.63	3.9282
46.64	3.94235
46.65	3.918
46.66	3.95452
46.67	3.96669
46.68	3.93445
46.69	3.96241
46.7	3.92228
46.71	3.95616
46.72	3.98051
46.73	3.9509
46.74	3.96143
46.75	3.95254
46.76	3.94893
46.77	3.95287
46.78	3.92985
46.79	3.97491
46.8	3.96998
46.81	3.94268
46.82	3.94202
46.83	3.95518
46.84	3.96965
46.85	3.93906
46.86	3.93248
46.87	3.96636
46.88	3.96932
46.89	3.90287
46.9	3.92228
46.91	3.91175
46.92	3.93708
46.93	3.96274
46.94	3.94465
46.95	3.94432
46.96	3.96472
46.97	3.9759
46.98	3.9634
46.99	3.95912
47	3.97952
47.01	3.94893
47.02	3.94399
47.03	3.9157
47.04	3.95616
47.05	3.94827
47.06	3.94761
47.07	3.96472
47.08	3.92623
47.09	3.92195
47.1	3.9634
47.11	3.94564
47.12	3.9588
47.13	3.93708
47.14	3.9384
47.15	3.97097
47.16	3.96373
47.17	3.99531
47.18	3.93544
47.19	3.91175
47.2	3.97952
47.21	3.94037
47.22	3.91471
47.23	3.93478
47.24	3.94761
47.25	3.94268
47.26	3.95024
47.27	3.97952
47.28	3.92491
47.29	3.95847
47.3	3.96241
47.31	3.96439
47.32	3.94301
47.33	3.96998
47.34	3.91702
47.35	3.97656
47.36	3.93116
47.37	3.91702
47.38	3.96537
47.39	3.94695
47.4	3.93939
47.41	3.9259
47.42	3.94629
47.43	3.9486
47.44	3.93577
47.45	3.93281
47.46	3.94136
47.47	3.9384
47.48	3.94761
47.49	3.93906
47.5	3.92952
47.51	3.94169
47.52	3.93972
47.53	3.96702
47.54	3.94794
47.55	3.9486
47.56	3.94136
47.57	3.94465
47.58	3.91636
47.59	3.94136
47.6	3.90254
47.61	3.93675
47.62	3.97195
47.63	3.95715
47.64	3.9305
47.65	3.95189
47.66	3.95419
47.67	3.93577
47.68	3.97524
47.69	3.95912
47.7	3.96044
47.71	3.94827
47.72	3.93116
47.73	3.95057
47.74	3.93643
47.75	3.9588
47.76	3.94991
47.77	3.93281
47.78	3.90879
47.79	3.95649
47.8	3.96077
47.81	3.96143
47.82	3.95518
47.83	3.98412
47.84	3.94662
47.85	3.99005
47.86	3.98248
47.87	3.96932
47.88	3.94366
47.89	3.97162
47.9	3.95748
47.91	3.92985
47.92	3.93281
47.93	3.95945
47.94	3.9986
47.95	3.95222
47.96	3.95649
47.97	3.98116
47.98	3.95057
47.99	3.94333
48	3.96768
48.01	3.93873
48.02	3.94629
48.03	3.94564
48.04	3.93412
48.05	3.95057
48.06	3.92425
48.07	3.97393
48.08	3.99202
48.09	3.97886
48.1	3.98577
48.11	3.94103
48.12	3.94268
48.13	3.92524
48.14	3.96833
48.15	3.97393
48.16	3.97557
48.17	3.95847
48.18	3.96866
48.19	3.94926
48.2	3.92393
48.21	3.9361
48.22	3.90583
48.23	3.94169
48.24	3.9532
48.25	3.96603
48.26	3.91735
48.27	3.91833
48.28	3.92294
48.29	3.95024
48.3	3.97985
48.31	3.95649
48.32	3.95287
48.33	3.94465
48.34	3.94794
48.35	3.97426
48.36	3.94004
48.37	3.93149
48.38	3.95287
48.39	3.9907
48.4	3.94991
48.41	3.95254
48.42	3.96505
48.43	3.97195
48.44	3.99366
48.45	3.99366
48.46	3.96406
48.47	3.96998
48.48	3.95353
48.49	3.91899
48.5	3.93708
48.51	3.93741
48.52	3.96636
48.53	3.95781
48.54	3.95616
48.55	3.93807
48.56	3.95024
48.57	3.9407
48.58	3.94827
48.59	3.97261
48.6	3.96965
48.61	3.90517
48.62	3.90846
48.63	3.92787
48.64	3.92162
48.65	3.93116
48.66	3.96406
48.67	3.94268
48.68	3.91537
48.69	3.96965
48.7	3.94399
48.71	3.96208
48.72	3.95189
48.73	3.96669
48.74	3.94432
48.75	3.96768
48.76	3.96537
48.77	3.97623
48.78	3.96176
48.79	3.93675
48.8	3.94893
48.81	3.95814
48.82	3.92952
48.83	3.93478
48.84	3.95485
48.85	3.94629
48.86	3.93215
48.87	3.90123
48.88	3.95123
48.89	3.9736
48.9	3.95748
48.91	3.93379
48.92	3.96998
48.93	3.95912
48.94	3.94662
48.95	3.97491
48.96	3.9838
48.97	3.94761
48.98	3.93083
48.99	3.94662
49	3.96077
49.01	3.96143
49.02	3.93281
49.03	3.91768
49.04	3.94268
49.05	3.96537
49.06	3.9532
49.07	3.9532
49.08	3.94761
49.09	3.93347
49.1	3.94268
49.11	3.94794
49.12	3.96932
49.13	3.93643
49.14	3.96077
49.15	3.92425
49.16	3.93018
49.17	3.94695
49.18	3.93215
49.19	3.98149
49.2	3.94695
49.21	3.9407
49.22	3.94301
49.23	3.92327
49.24	3.92787
49.25	3.95583
49.26	3.9407
49.27	3.92162
49.28	3.90452
49.29	3.91307
49.3	3.9259
49.31	3.90189
49.32	3.90452
49.33	3.95386
49.34	4.01669
49.35	3.92886
49.36	3.94629
49.37	3.98544
49.38	3.95123
49.39	3.93675
49.4	3.94169
49.41	3.93807
49.42	3.97195
49.43	3.94695
49.44	3.94564
49.45	3.93708
49.46	3.93577
49.47	3.92458
49.48	3.95287
49.49	3.9657
49.5	3.95123
49.51	3.91768
49.52	3.94564
49.53	3.92195
49.54	3.9236
49.55	3.91537
49.56	3.99268
49.57	3.94235
49.58	3.95682
49.59	3.97853
49.6	3.96176
49.61	3.94958
49.62	3.94564
49.63	3.91932
49.64	3.92031
49.65	3.93939
49.66	3.95419
49.67	3.96406
49.68	3.92096
49.69	3.95222
49.7	3.93478
49.71	3.94268
49.72	3.93511
49.73	3.92064
49.74	3.94893
49.75	3.96406
49.76	3.96143
49.77	3.95485
49.78	3.95156
49.79	3.93708
49.8	3.97261
49.81	3.97623
49.82	3.92787
49.83	3.95551
49.84	3.95485
49.85	3.97689
49.86	3.9259
49.87	3.91373
49.88	3.91833
49.89	3.93708
49.9	3.98577
49.91	3.94597
49.92	3.9384
49.93	3.98182
49.94	3.98149
49.95	3.91011
49.96	3.93347
49.97	3.94926
49.98	3.92491
49.99	3.96307
50	3.96636
