"BIO-KINE ASCII FILE"
"_COMMENT"	"MOS-500 Spectrometer"
"_COMMENT"	"Kinetics measurement"
"_COMMENT"	"Y Unit : Volt,  X Unit : s"
"_COMMENT"	"Excitation wavelength : 380 nm"
"_COMMENT"	"Fentes bandwidth =  1 nm"
"_COMMENT"	"HV= 1000V"
"_COMMENT"	"Timebase  1 =  .01 s   5001 pts"
"_SFM"	"SFM-400 /S  Advanced mode"
"_SFM"	"Ratio : S1: 2.5, S2: 0, S3: 0, S4: 1"
"_SFM"	"Content : S1: , S2: , S3: , S4:"
"_SFM"	"Concentration : S1: , S2: , S3: , S4:"
"_SFM"	"Total volume : 209 µl  Flow : 3.5 mL/s"
"_SFM"	"Acquisition start :  10 ms before stop"
"_SFM"	"cuve=FC-15, s1=10 ml , s2=10 ml , s3=10 ml , s4=1.9 ml"
"_UNITX"	"s"
"_UNITY"	"Volt"
"_DELTAX"	0
"_DATA"
1e-300	5.07495
0.01	5.55786
0.02	6.02761
0.03	6.18913
0.04	6.20327
0.05	6.25294
0.06	6.26577
0.07	6.25229
0.08	6.29472
0.09	6.31216
0.1	6.30097
0.11	6.37038
0.12	6.3365
0.13	6.35722
0.14	6.32696
0.15	6.35722
0.16	6.3138
0.17	6.36084
0.18	6.3342
0.19	6.3365
0.2	6.30952
0.21	6.36676
0.22	6.3217
0.23	6.32827
0.24	6.3842
0.25	6.3536
0.26	6.37268
0.27	6.35492
0.28	6.33946
0.29	6.33979
0.3	6.25722
0.31	6.34637
0.32	6.40361
0.33	6.35196
0.34	6.34439
0.35	6.38946
0.36	6.38058
0.37	6.33255
0.38	6.33617
0.39	6.29571
0.4	6.3638
0.41	6.36643
0.42	6.34439
0.43	6.30262
0.44	6.26117
0.45	6.30689
0.46	6.34702
0.47	6.33354
0.48	6.36841
0.49	6.32959
0.5	6.30623
0.51	6.38189
0.52	6.36413
0.53	6.29176
0.54	6.34538
0.55	6.33946
0.56	6.32137
0.57	6.25689
0.58	6.27926
0.59	6.31841
0.6	6.30821
0.61	6.31183
0.62	6.30952
0.63	6.28321
0.64	6.299
0.65	6.23189
0.66	6.28156
0.67	6.299
0.68	6.2865
0.69	6.26413
0.7	6.24932
0.71	6.23979
0.72	6.28551
0.73	6.26775
0.74	6.26808
0.75	6.26873
0.76	6.26018
0.77	6.23682
0.78	6.23748
0.79	6.24472
0.8	6.30426
0.81	6.24077
0.82	6.24998
0.83	6.26511
0.84	6.31051
0.85	6.26906
0.86	6.23518
0.87	6.21478
0.88	6.21709
0.89	6.21084
0.9	6.1957
0.91	6.21775
0.92	6.20623
0.93	6.27202
0.94	6.2434
0.95	6.18617
0.96	6.16873
0.97	6.18452
0.98	6.18485
0.99	6.19274
1	6.22498
1.01	6.20294
1.02	6.19307
1.03	6.16709
1.04	6.23057
1.05	6.20261
1.06	6.1763
1.07	6.17301
1.08	6.15294
1.09	6.15228
1.1	6.19505
1.11	6.16018
1.12	6.18189
1.13	6.16281
1.14	6.17136
1.15	6.19932
1.16	6.15097
1.17	6.17038
1.18	6.17301
1.19	6.14406
1.2	6.19702
1.21	6.16906
1.22	6.19965
1.23	6.14899
1.24	6.18024
1.25	6.18814
1.26	6.12564
1.27	6.15787
1.28	6.13287
1.29	6.18518
1.3	6.09439
1.31	6.12399
1.32	6.09077
1.33	6.14373
1.34	6.17761
1.35	6.15886
1.36	6.1309
1.37	6.10261
1.38	6.14899
1.39	6.0855
1.4	6.0832
1.41	6.1332
1.42	6.09274
1.43	6.13386
1.44	6.10722
1.45	6.0661
1.46	6.0809
1.47	6.08156
1.48	6.0957
1.49	6.08452
1.5	6.08781
1.51	6.12004
1.52	6.06379
1.53	6.04077
1.54	6.09274
1.55	6.09307
1.56	6.09241
1.57	6.08781
1.58	6.06873
1.59	6.03912
1.6	6.07893
1.61	6.06215
1.62	6.10261
1.63	6.11708
1.64	6.09373
1.65	6.06248
1.66	6.02465
1.67	6.05985
1.68	6.07202
1.69	6.04537
1.7	6.05853
1.71	6.04866
1.72	6.07037
1.73	6.08978
1.74	6.09143
1.75	6.048
1.76	6.03682
1.77	6.06971
1.78	6.05524
1.79	6.04504
1.8	5.99241
1.81	6.01313
1.82	6.02465
1.83	6.00162
1.84	6.02958
1.85	6.03649
1.86	5.97037
1.87	6.00853
1.88	6.01708
1.89	6.01478
1.9	5.99767
1.91	5.99767
1.92	6.0003
1.93	6.0207
1.94	6.01313
1.95	6.01774
1.96	5.99011
1.97	5.96741
1.98	6.03978
1.99	6.03386
2	5.9832
2.01	6.00524
2.02	6.00392
2.03	6.02629
2.04	6.00425
2.05	5.97432
2.06	5.96708
2.07	5.98451
2.08	6.00359
2.09	5.95557
2.1	5.99504
2.11	6.00096
2.12	5.98912
2.13	5.94965
2.14	5.93287
2.15	5.93879
2.16	5.94636
2.17	5.97432
2.18	5.96544
2.19	5.94636
2.2	5.98188
2.21	6.0003
2.22	5.94241
2.23	5.93451
2.24	5.9378
2.25	5.92596
2.26	5.98748
2.27	6.02004
2.28	5.94011
2.29	5.9253
2.3	5.96247
2.31	5.95984
2.32	5.92563
2.33	5.93057
2.34	5.86971
2.35	5.89274
2.36	5.92596
2.37	5.9457
2.38	5.9026
2.39	5.95754
2.4	5.97794
2.41	5.97761
2.42	5.96215
2.43	5.93418
2.44	5.90787
2.45	5.87102
2.46	5.89208
2.47	5.92432
2.48	5.9355
2.49	5.8753
2.5	5.90557
2.51	5.89438
2.52	5.8878
2.53	5.91872
2.54	5.91379
2.55	5.90721
2.56	5.90425
2.57	5.89405
2.58	5.95886
2.59	5.87727
2.6	5.873
2.61	5.8503
2.62	5.85425
2.63	5.85984
2.64	5.89208
2.65	5.90063
2.66	5.89603
2.67	5.81576
2.68	5.83583
2.69	5.83912
2.7	5.89931
2.71	5.81444
2.72	5.85162
2.73	5.91083
2.74	5.8901
2.75	5.80194
2.76	5.79043
2.77	5.81642
2.78	5.85195
2.79	5.85491
2.8	5.83944
2.81	5.84504
2.82	5.83583
2.83	5.83122
2.84	5.85984
2.85	5.90293
2.86	5.89668
2.87	5.83681
2.88	5.83944
2.89	5.78944
2.9	5.85688
2.91	5.823
2.92	5.83254
2.93	5.79339
2.94	5.84767
2.95	5.82859
2.96	5.8003
2.97	5.86445
2.98	5.85885
2.99	5.88089
3	5.85984
3.01	5.83517
3.02	5.84043
3.03	5.86675
3.04	5.79306
3.05	5.76872
3.06	5.79602
3.07	5.81444
3.08	5.76477
3.09	5.77431
3.1	5.83616
3.11	5.74569
3.12	5.79043
3.13	5.85622
3.14	5.82333
3.15	5.81017
3.16	5.78056
3.17	5.75984
3.18	5.74734
3.19	5.74109
3.2	5.83879
3.21	5.75951
3.22	5.77003
3.23	5.80392
3.24	5.81839
3.25	5.81017
3.26	5.798
3.27	5.77003
3.28	5.77036
3.29	5.79668
3.3	5.81642
3.31	5.79339
3.32	5.74997
3.33	5.7628
3.34	5.77826
3.35	5.76905
3.36	5.76675
3.37	5.77365
3.38	5.75852
3.39	5.76346
3.4	5.75589
3.41	5.78089
3.42	5.75227
3.43	5.75885
3.44	5.76905
3.45	5.80096
3.46	5.77234
3.47	5.72234
3.48	5.70984
3.49	5.76115
3.5	5.74865
3.51	5.75359
3.52	5.78319
3.53	5.7628
3.54	5.71576
3.55	5.74767
3.56	5.75885
3.57	5.75194
3.58	5.77826
3.59	5.71576
3.6	5.75688
3.61	5.76444
3.62	5.72201
3.63	5.77036
3.64	5.72234
3.65	5.6901
3.66	5.70622
3.67	5.72464
3.68	5.72365
3.69	5.68747
3.7	5.71313
3.71	5.6878
3.72	5.7276
3.73	5.69931
3.74	5.70556
3.75	5.69076
3.76	5.70227
3.77	5.7049
3.78	5.6697
3.79	5.68812
3.8	5.68023
3.81	5.72628
3.82	5.69997
3.83	5.66214
3.84	5.66148
3.85	5.7197
3.86	5.71181
3.87	5.70688
3.88	5.69043
3.89	5.64174
3.9	5.69668
3.91	5.66806
3.92	5.72135
3.93	5.69668
3.94	5.65786
3.95	5.70951
3.96	5.67727
3.97	5.66543
3.98	5.62661
3.99	5.68615
4	5.68418
4.01	5.72365
4.02	5.65391
4.03	5.74602
4.04	5.71872
4.05	5.68549
4.06	5.64997
4.07	5.6424
4.08	5.69372
4.09	5.66576
4.1	5.67201
4.11	5.66444
4.12	5.68418
4.13	5.63154
4.14	5.58681
4.15	5.57694
4.16	5.61707
4.17	5.64437
4.18	5.63911
4.19	5.64733
4.2	5.622
4.21	5.58385
4.22	5.62496
4.23	5.65424
4.24	5.64733
4.25	5.62562
4.26	5.65326
4.27	5.61641
4.28	5.66872
4.29	5.63385
4.3	5.55983
4.31	5.59799
4.32	5.65786
4.33	5.63154
4.34	5.64404
4.35	5.63352
4.36	5.61082
4.37	5.60983
4.38	5.61543
4.39	5.63056
4.4	5.63483
4.41	5.57661
4.42	5.57003
4.43	5.57957
4.44	5.60819
4.45	5.64075
4.46	5.62233
4.47	5.61082
4.48	5.55259
4.49	5.61312
4.5	5.62299
4.51	5.59108
4.52	5.64339
4.53	5.59996
4.54	5.57792
4.55	5.56049
4.56	5.60062
4.57	5.62661
4.58	5.59602
4.59	5.6026
4.6	5.63944
4.61	5.56411
4.62	5.58154
4.63	5.58056
4.64	5.6095
4.65	5.5845
4.66	5.59931
4.67	5.5822
4.68	5.60095
4.69	5.59042
4.7	5.55983
4.71	5.5345
4.72	5.54075
4.73	5.55161
4.74	5.55654
4.75	5.51575
4.76	5.58878
4.77	5.55391
4.78	5.60917
4.79	5.55523
4.8	5.59404
4.81	5.54536
4.82	5.58121
4.83	5.56345
4.84	5.56082
4.85	5.54207
4.86	5.55424
4.87	5.52332
4.88	5.56444
4.89	5.57891
4.9	5.54009
4.91	5.56345
4.92	5.56082
4.93	5.51608
4.94	5.55555
4.95	5.56773
4.96	5.56773
4.97	5.55753
4.98	5.57891
4.99	5.61246
5	5.54865
5.01	5.5424
5.02	5.5368
5.03	5.52891
5.04	5.51115
5.05	5.54174
5.06	5.58023
5.07	5.52397
5.08	5.53483
5.09	5.56213
5.1	5.56608
5.11	5.52496
5.12	5.53187
5.13	5.55325
5.14	5.51838
5.15	5.497
5.16	5.5197
5.17	5.53121
5.18	5.54536
5.19	5.53154
5.2	5.55588
5.21	5.51279
5.22	5.51345
5.23	5.50851
5.24	5.50325
5.25	5.51246
5.26	5.51312
5.27	5.5174
5.28	5.472
5.29	5.55687
5.3	5.54832
5.31	5.55128
5.32	5.53713
5.33	5.48483
5.34	5.4822
5.35	5.45983
5.36	5.51312
5.37	5.52167
5.38	5.49141
5.39	5.54634
5.4	5.5424
5.41	5.49075
5.42	5.51444
5.43	5.49075
5.44	5.44108
5.45	5.48845
5.46	5.47891
5.47	5.45818
5.48	5.46542
5.49	5.48154
5.5	5.47858
5.51	5.45193
5.52	5.43746
5.53	5.47266
5.54	5.52397
5.55	5.472
5.56	5.48614
5.57	5.49601
5.58	5.47595
5.59	5.47529
5.6	5.48746
5.61	5.4868
5.62	5.47628
5.63	5.51575
5.64	5.44897
5.65	5.497
5.66	5.47693
5.67	5.50424
5.68	5.50358
5.69	5.48614
5.7	5.46937
5.71	5.45424
5.72	5.44634
5.73	5.46049
5.74	5.44075
5.75	5.48022
5.76	5.52694
5.77	5.47299
5.78	5.45983
5.79	5.43187
5.8	5.43549
5.81	5.36147
5.82	5.38351
5.83	5.4072
5.84	5.43713
5.85	5.43121
5.86	5.42101
5.87	5.422
5.88	5.45095
5.89	5.41147
5.9	5.45753
5.91	5.4345
5.92	5.41476
5.93	5.4095
5.94	5.44996
5.95	5.44206
5.96	5.41213
5.97	5.43252
5.98	5.44535
5.99	5.4447
6	5.4141
6.01	5.47792
6.02	5.40983
6.03	5.46312
6.04	5.43417
6.05	5.39798
6.06	5.39502
6.07	5.44239
6.08	5.43384
6.09	5.38746
6.1	5.36246
6.11	5.40522
6.12	5.4197
6.13	5.39634
6.14	5.45588
6.15	5.46542
6.16	5.41739
6.17	5.40489
6.18	5.39502
6.19	5.39831
6.2	5.42002
6.21	5.44174
6.22	5.41246
6.23	5.39338
6.24	5.41443
6.25	5.42924
6.26	5.42858
6.27	5.37759
6.28	5.37989
6.29	5.40193
6.3	5.40983
6.31	5.36575
6.32	5.38252
6.33	5.40621
6.34	5.39535
6.35	5.40983
6.36	5.39864
6.37	5.35818
6.38	5.38417
6.39	5.41542
6.4	5.397
6.41	5.42463
6.42	5.41345
6.43	5.48943
6.44	5.40588
6.45	5.41805
6.46	5.38943
6.47	5.36904
6.48	5.40029
6.49	5.35456
6.5	5.39437
6.51	5.40127
6.52	5.39831
6.53	5.35325
6.54	5.33318
6.55	5.36476
6.56	5.3766
6.57	5.34404
6.58	5.30884
6.59	5.32825
6.6	5.35621
6.61	5.36344
6.62	5.32331
6.63	5.35193
6.64	5.35456
6.65	5.35818
6.66	5.35719
6.67	5.28285
6.68	5.3243
6.69	5.37956
6.7	5.3789
6.71	5.34404
6.72	5.32298
6.73	5.30588
6.74	5.33844
6.75	5.35325
6.76	5.37529
6.77	5.30851
6.78	5.34502
6.79	5.35423
6.8	5.35292
6.81	5.35818
6.82	5.35489
6.83	5.31278
6.84	5.34996
6.85	5.36673
6.86	5.30028
6.87	5.32759
6.88	5.33088
6.89	5.39667
6.9	5.33746
6.91	5.30884
6.92	5.35029
6.93	5.40127
6.94	5.36542
6.95	5.32825
6.96	5.3243
6.97	5.3289
6.98	5.3493
6.99	5.34568
7	5.29239
7.01	5.28745
7.02	5.32792
7.03	5.31936
7.04	5.27463
7.05	5.35818
7.06	5.34831
7.07	5.32528
7.08	5.29338
7.09	5.31147
7.1	5.31509
7.11	5.29732
7.12	5.28647
7.13	5.34502
7.14	5.3345
7.15	5.36608
7.16	5.34732
7.17	5.27989
7.18	5.32792
7.19	5.35358
7.2	5.33581
7.21	5.29699
7.22	5.31114
7.23	5.27989
7.24	5.30324
7.25	5.30653
7.26	5.29042
7.27	5.29042
7.28	5.30785
7.29	5.34601
7.3	5.3164
7.31	5.33384
7.32	5.37101
7.33	5.29601
7.34	5.29074
7.35	5.30752
7.36	5.31805
7.37	5.29074
7.38	5.25719
7.39	5.30884
7.4	5.2789
7.41	5.25061
7.42	5.29601
7.43	5.29042
7.44	5.26673
7.45	5.32331
7.46	5.29107
7.47	5.22594
7.48	5.30028
7.49	5.28153
7.5	5.26377
7.51	5.29699
7.52	5.26805
7.53	5.28713
7.54	5.29206
7.55	5.27956
7.56	5.28285
7.57	5.26213
7.58	5.26344
7.59	5.2687
7.6	5.29535
7.61	5.31903
7.62	5.2437
7.63	5.26936
7.64	5.30522
7.65	5.29042
7.66	5.23416
7.67	5.27331
7.68	5.27068
7.69	5.28548
7.7	5.30127
7.71	5.31673
7.72	5.30226
7.73	5.2641
7.74	5.2743
7.75	5.27035
7.76	5.28186
7.77	5.26838
7.78	5.23087
7.79	5.24798
7.8	5.24337
7.81	5.24206
7.82	5.27726
7.83	5.26311
7.84	5.25686
7.85	5.22298
7.86	5.25686
7.87	5.23976
7.88	5.24436
7.89	5.27594
7.9	5.28384
7.91	5.28186
7.92	5.27726
7.93	5.26377
7.94	5.26377
7.95	5.2539
7.96	5.27627
7.97	5.22758
7.98	5.24831
7.99	5.23055
8	5.28351
8.01	5.26574
8.02	5.2743
8.03	5.20225
8.04	5.23745
8.05	5.27134
8.06	5.23976
8.07	5.23219
8.08	5.21278
8.09	5.24732
8.1	5.26311
8.11	5.21081
8.12	5.27759
8.13	5.2618
8.14	5.22693
8.15	5.24535
8.16	5.25949
8.17	5.20489
8.18	5.25851
8.19	5.23351
8.2	5.24995
8.21	5.23943
8.22	5.21772
8.23	5.23087
8.24	5.20357
8.25	5.21837
8.26	5.20456
8.27	5.2039
8.28	5.19568
8.29	5.27726
8.3	5.22758
8.31	5.22265
8.32	5.21344
8.33	5.25686
8.34	5.24502
8.35	5.23482
8.36	5.19535
8.37	5.19074
8.38	5.24041
8.39	5.22824
8.4	5.18778
8.41	5.16114
8.42	5.20258
8.43	5.23943
8.44	5.22495
8.45	5.23811
8.46	5.18383
8.47	5.23219
8.48	5.2266
8.49	5.24272
8.5	5.21607
8.51	5.22462
8.52	5.20818
8.53	5.18581
8.54	5.18054
8.55	5.19074
8.56	5.21311
8.57	5.22791
8.58	5.22462
8.59	5.20785
8.6	5.25094
8.61	5.19469
8.62	5.17331
8.63	5.18252
8.64	5.21903
8.65	5.19633
8.66	5.22101
8.67	5.16015
8.68	5.1687
8.69	5.20719
8.7	5.15094
8.71	5.16048
8.72	5.19173
8.73	5.15357
8.74	5.16475
8.75	5.20423
8.76	5.22429
8.77	5.21541
8.78	5.17594
8.79	5.21969
8.8	5.18975
8.81	5.18416
8.82	5.19798
8.83	5.20225
8.84	5.26673
8.85	5.19469
8.86	5.19173
8.87	5.17265
8.88	5.2039
8.89	5.19995
8.9	5.17166
8.91	5.11245
8.92	5.16804
8.93	5.15488
8.94	5.15686
8.95	5.15357
8.96	5.171
8.97	5.18581
8.98	5.17035
8.99	5.17067
9	5.196
9.01	5.19535
9.02	5.19929
9.03	5.2016
9.04	5.16245
9.05	5.1664
9.06	5.19995
9.07	5.15817
9.08	5.19107
9.09	5.16048
9.1	5.13449
9.11	5.1585
9.12	5.16837
9.13	5.17989
9.14	5.14337
9.15	5.18449
9.16	5.18318
9.17	5.2164
9.18	5.19436
9.19	5.18318
9.2	5.17561
9.21	5.18318
9.22	5.21344
9.23	5.16212
9.24	5.13712
9.25	5.171
9.26	5.13515
9.27	5.15094
9.28	5.19436
9.29	5.15225
9.3	5.14798
9.31	5.14633
9.32	5.14929
9.33	5.12857
9.34	5.12627
9.35	5.13449
9.36	5.146
9.37	5.13646
9.38	5.171
9.39	5.14008
9.4	5.15423
9.41	5.171
9.42	5.13679
9.43	5.13054
9.44	5.16212
9.45	5.15456
9.46	5.19272
9.47	5.14962
9.48	5.15949
9.49	5.1539
9.5	5.16607
9.51	5.16804
9.52	5.15258
9.53	5.16442
9.54	5.17956
9.55	5.14173
9.56	5.11475
9.57	5.09863
9.58	5.06969
9.59	5.14502
9.6	5.1289
9.61	5.15521
9.62	5.08284
9.63	5.07561
9.64	5.13383
9.65	5.14929
9.66	5.12067
9.67	5.13975
9.68	5.17002
9.69	5.18383
9.7	5.14929
9.71	5.10587
9.72	5.16508
9.73	5.10225
9.74	5.11804
9.75	5.15324
9.76	5.14173
9.77	5.08745
9.78	5.10028
9.79	5.14469
9.8	5.14896
9.81	5.12034
9.82	5.16442
9.83	5.14798
9.84	5.14633
9.85	5.17429
9.86	5.16311
9.87	5.10686
9.88	5.08021
9.89	5.13515
9.9	5.12396
9.91	5.14863
9.92	5.15686
9.93	5.09304
9.94	5.14403
9.95	5.09271
9.96	5.09929
9.97	5.10686
9.98	5.09995
9.99	5.121
10	5.11278
10.01	5.11673
10.02	5.13778
10.03	5.11936
10.04	5.08449
10.05	5.12133
10.06	5.08811
10.07	5.09436
10.08	5.07001
10.09	5.17331
10.1	5.17002
10.11	5.10488
10.12	5.12265
10.13	5.146
10.14	5.09205
10.15	5.10258
10.16	5.07922
10.17	5.08054
10.18	5.09962
10.19	5.10949
10.2	5.10126
10.21	5.15785
10.22	5.12002
10.23	5.11508
10.24	5.12594
10.25	5.10357
10.26	5.09995
10.27	5.12462
10.28	5.11837
10.29	5.05291
10.3	5.04962
10.31	5.09173
10.32	5.09534
10.33	5.12594
10.34	5.11574
10.35	5.1085
10.36	5.09107
10.37	5.10028
10.38	5.08646
10.39	5.07166
10.4	5.08251
10.41	5.11146
10.42	5.11015
10.43	5.06705
10.44	5.06837
10.45	5.0733
10.46	5.0835
10.47	5.0812
10.48	5.096
10.49	5.05653
10.5	5.05916
10.51	5.03251
10.52	5.09403
10.53	5.05291
10.54	5.07659
10.55	5.08416
10.56	5.08054
10.57	5.09765
10.58	5.09732
10.59	5.06376
10.6	5.0437
10.61	5.11804
10.62	5.0937
10.63	5.0664
10.64	5.08811
10.65	5.08712
10.66	5.121
10.67	5.11179
10.68	5.11936
10.69	5.10817
10.7	5.08613
10.71	5.12067
10.72	5.0835
10.73	5.07725
10.74	5.10817
10.75	5.10784
10.76	5.09798
10.77	5.06409
10.78	5.12067
10.79	5.07725
10.8	5.06343
10.81	5.04633
10.82	5.04863
10.83	5.06672
10.84	5.08383
10.85	5.07955
10.86	5.06804
10.87	5.13712
10.88	5.07199
10.89	5.07758
10.9	5.08646
10.91	5.07626
10.92	5.05291
10.93	5.0256
10.94	5.07626
10.95	5.08317
10.96	5.06936
10.97	5.05258
10.98	5.06409
10.99	5.05061
11	5.06442
11.01	5.08251
11.02	5.05488
11.03	5.04962
11.04	5.04041
11.05	5.05028
11.06	5.02001
11.07	5.0483
11.08	5.03712
11.09	5.0664
11.1	5.02429
11.11	5.02528
11.12	5.04337
11.13	5.04666
11.14	5.0789
11.15	5.05455
11.16	5.0483
11.17	5.09238
11.18	5.05554
11.19	5.04995
11.2	5.04074
11.21	5.01639
11.22	5.04008
11.23	5.05028
11.24	5.06837
11.25	5.07363
11.26	5.04863
11.27	5.03383
11.28	5.04205
11.29	5.06574
11.3	5.11409
11.31	5.06903
11.32	5.04304
11.33	4.98777
11.34	5.02889
11.35	5.06837
11.36	5.08021
11.37	5.05126
11.38	5.02495
11.39	5.00817
11.4	5.01935
11.41	5.05784
11.42	5.04403
11.43	5.05554
11.44	5.02034
11.45	5.03679
11.46	5.04041
11.47	5.07561
11.48	5.02462
11.49	5.00784
11.5	5.0483
11.51	5.04403
11.52	5.06212
11.53	5.0789
11.54	5.05982
11.55	5.03383
11.56	5.0664
11.57	5.06179
11.58	5.04205
11.59	5.0539
11.6	5.05324
11.61	5.03909
11.62	5.02988
11.63	4.98712
11.64	5.00126
11.65	5.01278
11.66	5.05159
11.67	5.08778
11.68	5.04139
11.69	5.06212
11.7	4.99041
11.71	5.00916
11.72	5.02955
11.73	5.09534
11.74	5.09436
11.75	5.04929
11.76	5.0483
11.77	5.08811
11.78	5.03679
11.79	5.01475
11.8	5.02889
11.81	5.02363
11.82	5.01639
11.83	5.0108
11.84	5.00883
11.85	5.04929
11.86	5.07067
11.87	5.01409
11.88	5.03778
11.89	5.04666
11.9	4.98777
11.91	5.03416
11.92	5.03317
11.93	5.02758
11.94	5.0539
11.95	5.02199
11.96	5.03153
11.97	5.04534
11.98	4.9881
11.99	4.99995
12	5.0437
12.01	5.02199
12.02	5.01541
12.03	5.03284
12.04	4.98843
12.05	4.99929
12.06	4.99797
12.07	5.00916
12.08	5.01541
12.09	5.03087
12.1	5.01113
12.11	5.01903
12.12	5.01935
12.13	5.03482
12.14	5.0006
12.15	5.021
12.16	5.02593
12.17	4.9881
12.18	4.98317
12.19	5.00389
12.2	4.99962
12.21	5.01212
12.22	5.01278
12.23	5.02232
12.24	5.01508
12.25	5.0437
12.26	5.02363
12.27	4.96376
12.28	4.93251
12.29	4.96508
12.3	5.03745
12.31	5.01212
12.32	4.99074
12.33	5.05554
12.34	5.02988
12.35	5.00192
12.36	4.99468
12.37	4.99238
12.38	5.02626
12.39	5.02001
12.4	5.02297
12.41	4.99797
12.42	5.01409
12.43	4.96475
12.44	5.03218
12.45	4.99271
12.46	4.99304
12.47	4.97823
12.48	5.00784
12.49	5.01442
12.5	4.98745
12.51	4.98021
12.52	5.0108
12.53	4.97297
12.54	4.97758
12.55	5.01245
12.56	5.04205
12.57	5.03975
12.58	5.03153
12.59	4.99501
12.6	4.96409
12.61	5.00356
12.62	4.99074
12.63	5.02659
12.64	5.00718
12.65	4.98317
12.66	4.99699
12.67	4.98383
12.68	5.00653
12.69	4.96705
12.7	5.01212
12.71	5.01442
12.72	4.99172
12.73	4.97856
12.74	5.01343
12.75	5.00126
12.76	4.98185
12.77	4.99995
12.78	4.99633
12.79	5.00817
12.8	5.03054
12.81	4.9483
12.82	4.9585
12.83	4.98317
12.84	4.99962
12.85	5.01606
12.86	5.01278
12.87	4.9812
12.88	4.96639
12.89	5.0006
12.9	4.92758
12.91	4.96047
12.92	5.03778
12.93	5.02692
12.94	4.96606
12.95	4.94896
12.96	5.0062
12.97	5.02725
12.98	5.00784
12.99	4.996
13	5.00192
13.01	4.96376
13.02	4.95192
13.03	5.0108
13.04	5.00225
13.05	5.00751
13.06	4.99008
13.07	4.96113
13.08	4.97626
13.09	5.01047
13.1	4.98284
13.11	5.01672
13.12	4.98613
13.13	4.98021
13.14	5.00389
13.15	5.01771
13.16	4.98547
13.17	4.98152
13.18	4.99896
13.19	4.97955
13.2	4.9937
13.21	4.96442
13.22	4.94304
13.23	4.99567
13.24	4.95652
13.25	4.92659
13.26	4.93843
13.27	4.9756
13.28	5.01113
13.29	5.02396
13.3	4.99468
13.31	4.97166
13.32	4.99271
13.33	5.00126
13.34	4.96409
13.35	4.95488
13.36	4.96508
13.37	4.95258
13.38	4.96935
13.39	4.95356
13.4	5.00981
13.41	4.98547
13.42	4.94402
13.43	4.97791
13.44	4.97791
13.45	4.95784
13.46	4.99896
13.47	4.96146
13.48	4.97593
13.49	4.96606
13.5	4.99501
13.51	4.99797
13.52	4.9608
13.53	4.98975
13.54	4.96935
13.55	4.98054
13.56	4.95455
13.57	4.96047
13.58	4.9756
13.59	5.00192
13.6	4.98646
13.61	4.9687
13.62	4.96113
13.63	4.98975
13.64	4.95323
13.65	4.97264
13.66	4.95619
13.67	4.98843
13.68	5.01475
13.69	4.97495
13.7	4.93975
13.71	4.95356
13.72	4.9756
13.73	4.97166
13.74	4.97758
13.75	4.98317
13.76	4.971
13.77	4.93975
13.78	4.93777
13.79	4.99962
13.8	5.00521
13.81	4.9631
13.82	4.94962
13.83	4.95883
13.84	4.97955
13.85	4.97396
13.86	4.96113
13.87	4.92198
13.88	4.91902
13.89	4.95225
13.9	5.00817
13.91	4.96212
13.92	4.91902
13.93	4.946
13.94	4.91672
13.95	4.97363
13.96	4.97363
13.97	5.00126
13.98	4.97527
13.99	4.94304
14	4.95422
14.01	4.97659
14.02	4.96212
14.03	4.95356
14.04	4.97527
14.05	4.96837
14.06	4.92396
14.07	4.88744
14.08	4.90685
14.09	4.92264
14.1	4.97889
14.11	4.96902
14.12	4.97593
14.13	4.91376
14.14	4.93909
14.15	4.95685
14.16	4.94139
14.17	4.9608
14.18	4.99764
14.19	4.96573
14.2	4.93383
14.21	4.92461
14.22	4.91902
14.23	4.89896
14.24	4.90652
14.25	4.93843
14.26	4.95817
14.27	4.93613
14.28	4.97659
14.29	4.94962
14.3	4.94073
14.31	4.9233
14.32	4.92165
14.33	4.99074
14.34	4.96606
14.35	4.896
14.36	4.93218
14.37	4.96442
14.38	5.0085
14.39	4.96146
14.4	4.98251
14.41	5.021
14.42	4.94698
14.43	4.89271
14.44	4.93152
14.45	4.94238
14.46	4.9483
14.47	4.9687
14.48	4.96212
14.49	4.9608
14.5	4.95356
14.51	4.9506
14.52	4.96475
14.53	4.94665
14.54	4.91771
14.55	4.87231
14.56	4.92429
14.57	4.93481
14.58	4.97067
14.59	4.95192
14.6	4.91639
14.61	4.93383
14.62	4.92988
14.63	4.90554
14.64	4.92231
14.65	4.9358
14.66	4.93712
14.67	4.91804
14.68	4.91738
14.69	4.92165
14.7	4.95751
14.71	4.91869
14.72	4.93087
14.73	4.92823
14.74	4.91376
14.75	4.94304
14.76	4.95685
14.77	4.93547
14.78	4.92889
14.79	4.93284
14.8	4.92231
14.81	4.88777
14.82	4.93777
14.83	4.98416
14.84	4.9279
14.85	4.91935
14.86	4.89632
14.87	4.90619
14.88	4.92297
14.89	4.91409
14.9	4.89896
14.91	4.93909
14.92	4.91771
14.93	4.94994
14.94	4.89567
14.95	4.93383
14.96	4.95652
14.97	4.93087
14.98	4.92133
14.99	4.91179
15	4.90981
15.01	4.94962
15.02	4.95093
15.03	4.8858
15.04	4.93383
15.05	4.93679
15.06	4.93744
15.07	4.91705
15.08	4.91836
15.09	4.92626
15.1	4.95784
15.11	4.95817
15.12	4.91968
15.13	4.90159
15.14	4.8904
15.15	4.91211
15.16	4.95619
15.17	4.90257
15.18	4.89271
15.19	4.94205
15.2	4.94304
15.21	4.95685
15.22	4.94764
15.23	4.9585
15.24	4.95225
15.25	4.95916
15.26	4.95027
15.27	4.90586
15.28	4.92626
15.29	4.9404
15.3	4.93185
15.31	4.93646
15.32	4.92264
15.33	4.93021
15.34	4.91935
15.35	4.9687
15.36	4.92494
15.37	4.89665
15.38	4.92264
15.39	4.88448
15.4	4.91014
15.41	4.94238
15.42	4.91376
15.43	4.90784
15.44	4.92396
15.45	4.94106
15.46	4.93284
15.47	4.95422
15.48	4.96212
15.49	4.96804
15.5	4.91277
15.51	4.89665
15.52	4.93054
15.53	4.91508
15.54	4.93843
15.55	4.92758
15.56	4.89369
15.57	4.88152
15.58	4.92396
15.59	4.96343
15.6	4.90488
15.61	4.91968
15.62	4.9131
15.63	4.91113
15.64	4.96179
15.65	4.85488
15.66	4.92133
15.67	4.9154
15.68	4.92231
15.69	4.95389
15.7	4.93744
15.71	4.89863
15.72	4.89665
15.73	4.94764
15.74	4.95488
15.75	4.96705
15.76	4.92198
15.77	4.88547
15.78	4.94994
15.79	4.95981
15.8	4.92429
15.81	4.91606
15.82	4.9131
15.83	4.87626
15.84	4.8881
15.85	4.87428
15.86	4.88251
15.87	4.89106
15.88	4.91179
15.89	4.9506
15.9	4.91376
15.91	4.90455
15.92	4.88448
15.93	4.90389
15.94	4.90521
15.95	4.88218
15.96	4.90159
15.97	4.92856
15.98	4.89336
15.99	4.93975
16	4.90093
16.01	4.9233
16.02	4.86178
16.03	4.87856
16.04	4.88843
16.05	4.83415
16.06	4.9131
16.07	4.88382
16.08	4.95159
16.09	4.89238
16.1	4.88547
16.11	4.8427
16.12	4.86376
16.13	4.9233
16.14	4.91804
16.15	4.91705
16.16	4.88744
16.17	4.91244
16.18	4.89007
16.19	4.93152
16.2	4.87297
16.21	4.89929
16.22	4.91475
16.23	4.91508
16.24	4.88448
16.25	4.9358
16.26	4.93876
16.27	4.92264
16.28	4.94435
16.29	4.93021
16.3	4.93119
16.31	4.8608
16.32	4.85915
16.33	4.86442
16.34	4.8779
16.35	4.8835
16.36	4.90356
16.37	4.90093
16.38	4.90948
16.39	4.89336
16.4	4.88317
16.41	4.92494
16.42	4.90751
16.43	4.86639
16.44	4.91836
16.45	4.94106
16.46	4.89994
16.47	4.91672
16.48	4.88843
16.49	4.86738
16.5	4.87001
16.51	4.91968
16.52	4.90225
16.53	4.88876
16.54	4.84336
16.55	4.86771
16.56	4.89567
16.57	4.88448
16.58	4.87823
16.59	4.88415
16.6	4.88646
16.61	4.89961
16.62	4.90586
16.63	4.87428
16.64	4.89435
16.65	4.92429
16.66	4.89632
16.67	4.9108
16.68	4.89139
16.69	4.90488
16.7	4.86902
16.71	4.88185
16.72	4.90422
16.73	4.89896
16.74	4.89336
16.75	4.86672
16.76	4.86968
16.77	4.88678
16.78	4.86771
16.79	4.84665
16.8	4.91573
16.81	4.89369
16.82	4.87001
16.83	4.89863
16.84	4.90356
16.85	4.88152
16.86	4.85817
16.87	4.90488
16.88	4.90817
16.89	4.89073
16.9	4.85784
16.91	4.8358
16.92	4.90586
16.93	4.85948
16.94	4.90389
16.95	4.90159
16.96	4.9085
16.97	4.90027
16.98	4.89205
16.99	4.88843
17	4.87823
17.01	4.84172
17.02	4.88909
17.03	4.90356
17.04	4.88613
17.05	4.90784
17.06	4.8881
17.07	4.88152
17.08	4.8733
17.09	4.89271
17.1	4.85323
17.11	4.8358
17.12	4.91672
17.13	4.88251
17.14	4.90422
17.15	4.89797
17.16	4.86507
17.17	4.87593
17.18	4.89073
17.19	4.91639
17.2	4.87757
17.21	4.92001
17.22	4.87659
17.23	4.8404
17.24	4.8631
17.25	4.87988
17.26	4.91179
17.27	4.9006
17.28	4.88185
17.29	4.8483
17.3	4.86014
17.31	4.88481
17.32	4.93185
17.33	4.89336
17.34	4.88678
17.35	4.87922
17.36	4.91014
17.37	4.89139
17.38	4.85389
17.39	4.88284
17.4	4.88514
17.41	4.89501
17.42	4.87198
17.43	4.88284
17.44	4.87988
17.45	4.87264
17.46	4.8733
17.47	4.85159
17.48	4.89764
17.49	4.91442
17.5	4.88547
17.51	4.85586
17.52	4.86277
17.53	4.84369
17.54	4.83876
17.55	4.87099
17.56	4.87724
17.57	4.86968
17.58	4.86771
17.59	4.87231
17.6	4.8835
17.61	4.896
17.62	4.83876
17.63	4.84698
17.64	4.86639
17.65	4.84139
17.66	4.88086
17.67	4.87428
17.68	4.8233
17.69	4.84567
17.7	4.85619
17.71	4.90981
17.72	4.87757
17.73	4.88646
17.74	4.91672
17.75	4.92659
17.76	4.89369
17.77	4.88152
17.78	4.90356
17.79	4.88646
17.8	4.90751
17.81	4.90685
17.82	4.83909
17.83	4.81737
17.84	4.86178
17.85	4.85619
17.86	4.89073
17.87	4.86145
17.88	4.85849
17.89	4.91935
17.9	4.87823
17.91	4.84994
17.92	4.85849
17.93	4.87428
17.94	4.89106
17.95	4.87626
17.96	4.87363
17.97	4.86244
17.98	4.90981
17.99	4.88317
18	4.86836
18.01	4.86803
18.02	4.85389
18.03	4.84632
18.04	4.92067
18.05	4.87132
18.06	4.85817
18.07	4.8779
18.08	4.90126
18.09	4.93514
18.1	4.92133
18.11	4.86902
18.12	4.89271
18.13	4.8904
18.14	4.83251
18.15	4.85323
18.16	4.83941
18.17	4.87396
18.18	4.84895
18.19	4.87922
18.2	4.89501
18.21	4.94369
18.22	4.86178
18.23	4.84106
18.24	4.84534
18.25	4.88119
18.26	4.8631
18.27	4.88678
18.28	4.84238
18.29	4.82823
18.3	4.8608
18.31	4.84599
18.32	4.86968
18.33	4.88317
18.34	4.89303
18.35	4.86178
18.36	4.84632
18.37	4.84698
18.38	4.83119
18.39	4.90389
18.4	4.86178
18.41	4.92363
18.42	4.9131
18.43	4.87955
18.44	4.87461
18.45	4.89797
18.46	4.83645
18.47	4.84007
18.48	4.83909
18.49	4.87297
18.5	4.88613
18.51	4.87757
18.52	4.85981
18.53	4.88876
18.54	4.89073
18.55	4.89896
18.56	4.9006
18.57	4.88613
18.58	4.84698
18.59	4.83316
18.6	4.85159
18.61	4.85257
18.62	4.87461
18.63	4.87231
18.64	4.86047
18.65	4.88218
18.66	4.86606
18.67	4.89007
18.68	4.8608
18.69	4.84534
18.7	4.83119
18.71	4.85882
18.72	4.86672
18.73	4.88909
18.74	4.8733
18.75	4.86113
18.76	4.90817
18.77	4.90619
18.78	4.90915
18.79	4.88251
18.8	4.86738
18.81	4.86738
18.82	4.86178
18.83	4.89303
18.84	4.85718
18.85	4.86705
18.86	4.91705
18.87	4.88152
18.88	4.86836
18.89	4.8881
18.9	4.86672
18.91	4.89106
18.92	4.84895
18.93	4.88711
18.94	4.92396
18.95	4.86343
18.96	4.88185
18.97	4.85751
18.98	4.88251
18.99	4.87428
19	4.90652
19.01	4.8552
19.02	4.82066
19.03	4.87593
19.04	4.87988
19.05	4.8506
19.06	4.87198
19.07	4.88251
19.08	4.94304
19.09	4.90915
19.1	4.86836
19.11	4.86474
19.12	4.86935
19.13	4.86047
19.14	4.88876
19.15	4.89336
19.16	4.87659
19.17	4.86836
19.18	4.87527
19.19	4.8756
19.2	4.88975
19.21	4.87067
19.22	4.88744
19.23	4.84994
19.24	4.83086
19.25	4.83053
19.26	4.8733
19.27	4.86606
19.28	4.84731
19.29	4.85981
19.3	4.90981
19.31	4.84863
19.32	4.84073
19.33	4.86145
19.34	4.84567
19.35	4.83876
19.36	4.8654
19.37	4.88942
19.38	4.81803
19.39	4.85422
19.4	4.84468
19.41	4.8552
19.42	4.86771
19.43	4.87099
19.44	4.87692
19.45	4.89172
19.46	4.8506
19.47	4.8404
19.48	4.88678
19.49	4.82593
19.5	4.85882
19.51	4.91738
19.52	4.87922
19.53	4.90192
19.54	4.86507
19.55	4.86442
19.56	4.85126
19.57	4.84073
19.58	4.87692
19.59	4.88481
19.6	4.88481
19.61	4.84534
19.62	4.84435
19.63	4.86442
19.64	4.87889
19.65	4.86113
19.66	4.87231
19.67	4.88218
19.68	4.86211
19.69	4.8529
19.7	4.84961
19.71	4.8552
19.72	4.81047
19.73	4.8608
19.74	4.86672
19.75	4.86738
19.76	4.86178
19.77	4.86145
19.78	4.83876
19.79	4.84665
19.8	4.84172
19.81	4.85027
19.82	4.85652
19.83	4.91211
19.84	4.85586
19.85	4.8279
19.86	4.82231
19.87	4.82494
19.88	4.8756
19.89	4.88777
19.9	4.87297
19.91	4.83316
19.92	4.88021
19.93	4.86145
19.94	4.80652
19.95	4.87165
19.96	4.88547
19.97	4.87724
19.98	4.85257
19.99	4.86211
20	4.8631
20.01	4.86277
20.02	4.8835
20.03	4.88415
20.04	4.87757
20.05	4.85257
20.06	4.87396
20.07	4.90225
20.08	4.90981
20.09	4.87396
20.1	4.86803
20.11	4.8552
20.12	4.88053
20.13	4.89369
20.14	4.90225
20.15	4.8154
20.16	4.81672
20.17	4.86836
20.18	4.87593
20.19	4.82264
20.2	4.86803
20.21	4.88613
20.22	4.81836
20.23	4.83481
20.24	4.8483
20.25	4.8302
20.26	4.85981
20.27	4.82823
20.28	4.83349
20.29	4.88942
20.3	4.86606
20.31	4.84731
20.32	4.8427
20.33	4.84764
20.34	4.84665
20.35	4.83053
20.36	4.80915
20.37	4.86442
20.38	4.83909
20.39	4.83185
20.4	4.82823
20.41	4.85817
20.42	4.82527
20.43	4.83777
20.44	4.84073
20.45	4.84895
20.46	4.8302
20.47	4.79895
20.48	4.86639
20.49	4.83251
20.5	4.82955
20.51	4.82527
20.52	4.85751
20.53	4.83974
20.54	4.86113
20.55	4.85915
20.56	4.83613
20.57	4.83941
20.58	4.83448
20.59	4.8506
20.6	4.86113
20.61	4.85422
20.62	4.79303
20.63	4.83777
20.64	4.85455
20.65	4.88448
20.66	4.86869
20.67	4.86014
20.68	4.86178
20.69	4.86507
20.7	4.8835
20.71	4.87034
20.72	4.84731
20.73	4.87823
20.74	4.8108
20.75	4.82527
20.76	4.83678
20.77	4.85652
20.78	4.83843
20.79	4.81573
20.8	4.83777
20.81	4.85817
20.82	4.88218
20.83	4.88514
20.84	4.87034
20.85	4.85553
20.86	4.83086
20.87	4.85422
20.88	4.80619
20.89	4.80981
20.9	4.84698
20.91	4.83415
20.92	4.81277
20.93	4.80751
20.94	4.80553
20.95	4.82494
20.96	4.82198
20.97	4.86014
20.98	4.84961
20.99	4.82132
21	4.83678
21.01	4.79139
21.02	4.83086
21.03	4.81211
21.04	4.85093
21.05	4.83086
21.06	4.8279
21.07	4.81244
21.08	4.79172
21.09	4.79862
21.1	4.80323
21.11	4.83053
21.12	4.83974
21.13	4.84632
21.14	4.85323
21.15	4.87527
21.16	4.896
21.17	4.85915
21.18	4.85751
21.19	4.85455
21.2	4.85718
21.21	4.89731
21.22	4.91014
21.23	4.86014
21.24	4.84205
21.25	4.87659
21.26	4.89205
21.27	4.83251
21.28	4.83349
21.29	4.81178
21.3	4.84303
21.31	4.8529
21.32	4.84534
21.33	4.81672
21.34	4.80224
21.35	4.83547
21.36	4.82132
21.37	4.83777
21.38	4.82955
21.39	4.82165
21.4	4.85915
21.41	4.86376
21.42	4.91244
21.43	4.8506
21.44	4.85389
21.45	4.84764
21.46	4.87988
21.47	4.82593
21.48	4.8256
21.49	4.81737
21.5	4.82691
21.51	4.8381
21.52	4.84632
21.53	4.83843
21.54	4.84665
21.55	4.86573
21.56	4.79106
21.57	4.86409
21.58	4.87165
21.59	4.8506
21.6	4.82461
21.61	4.79566
21.62	4.83909
21.63	4.84139
21.64	4.8256
21.65	4.84764
21.66	4.88185
21.67	4.86474
21.68	4.80816
21.69	4.80455
21.7	4.8404
21.71	4.84238
21.72	4.84731
21.73	4.84172
21.74	4.85093
21.75	4.85159
21.76	4.84961
21.77	4.83941
21.78	4.78251
21.79	4.83316
21.8	4.81902
21.81	4.85422
21.82	4.86705
21.83	4.8358
21.84	4.87067
21.85	4.84928
21.86	4.82955
21.87	4.85882
21.88	4.83119
21.89	4.80323
21.9	4.83843
21.91	4.83053
21.92	4.82527
21.93	4.8506
21.94	4.85027
21.95	4.85126
21.96	4.85882
21.97	4.84731
21.98	4.82922
21.99	4.83941
22	4.8483
22.01	4.83284
22.02	4.81244
22.03	4.86277
22.04	4.85849
22.05	4.84665
22.06	4.85751
22.07	4.86606
22.08	4.8302
22.09	4.8427
22.1	4.83448
22.11	4.8154
22.12	4.8381
22.13	4.8858
22.14	4.86343
22.15	4.82165
22.16	4.81639
22.17	4.83941
22.18	4.81573
22.19	4.83053
22.2	4.78612
22.21	4.84665
22.22	4.82988
22.23	4.84402
22.24	4.80027
22.25	4.79599
22.26	4.80422
22.27	4.84172
22.28	4.84863
22.29	4.86113
22.3	4.84961
22.31	4.81014
22.32	4.79928
22.33	4.87396
22.34	4.80783
22.35	4.83086
22.36	4.8529
22.37	4.83876
22.38	4.83053
22.39	4.79369
22.4	4.83547
22.41	4.81639
22.42	4.83251
22.43	4.83086
22.44	4.78645
22.45	4.85356
22.46	4.80323
22.47	4.81376
22.48	4.86639
22.49	4.84632
22.5	4.85619
22.51	4.85685
22.52	4.83974
22.53	4.83382
22.54	4.85586
22.55	4.81968
22.56	4.80882
22.57	4.82691
22.58	4.84336
22.59	4.84797
22.6	4.79862
22.61	4.78908
22.62	4.82198
22.63	4.77231
22.64	4.8233
22.65	4.84928
22.66	4.85981
22.67	4.80915
22.68	4.80915
22.69	4.85718
22.7	4.83415
22.71	4.79566
22.72	4.81244
22.73	4.87428
22.74	4.82034
22.75	4.78579
22.76	4.79237
22.77	4.81803
22.78	4.80126
22.79	4.83382
22.8	4.81277
22.81	4.81178
22.82	4.81705
22.83	4.82165
22.84	4.80783
22.85	4.78218
22.86	4.84764
22.87	4.8506
22.88	4.8233
22.89	4.81869
22.9	4.78086
22.91	4.83152
22.92	4.81803
22.93	4.81112
22.94	4.82066
22.95	4.85784
22.96	4.83185
22.97	4.83678
22.98	4.8154
22.99	4.79435
23	4.82132
23.01	4.80882
23.02	4.84632
23.03	4.87527
23.04	4.87396
23.05	4.80948
23.06	4.79994
23.07	4.82593
23.08	4.79862
23.09	4.80356
23.1	4.84928
23.11	4.84435
23.12	4.88119
23.13	4.83053
23.14	4.81869
23.15	4.81705
23.16	4.81047
23.17	4.81376
23.18	4.81672
23.19	4.81376
23.2	4.82659
23.21	4.82297
23.22	4.80093
23.23	4.85159
23.24	4.87132
23.25	4.80652
23.26	4.8404
23.27	4.80257
23.28	4.82264
23.29	4.82428
23.3	4.79665
23.31	4.79895
23.32	4.84863
23.33	4.81902
23.34	4.88843
23.35	4.86211
23.36	4.82691
23.37	4.83941
23.38	4.87297
23.39	4.81277
23.4	4.84468
23.41	4.82395
23.42	4.8608
23.43	4.82297
23.44	4.81573
23.45	4.82691
23.46	4.87001
23.47	4.84797
23.48	4.86672
23.49	4.83086
23.5	4.75882
23.51	4.81211
23.52	4.7983
23.53	4.81376
23.54	4.8381
23.55	4.8529
23.56	4.85356
23.57	4.84797
23.58	4.83284
23.59	4.79172
23.6	4.82395
23.61	4.83974
23.62	4.83382
23.63	4.87001
23.64	4.87494
23.65	4.8256
23.66	4.82922
23.67	4.82494
23.68	4.81277
23.69	4.85422
23.7	4.86211
23.71	4.88317
23.72	4.84303
23.73	4.79599
23.74	4.83316
23.75	4.85323
23.76	4.82231
23.77	4.78645
23.78	4.82362
23.79	4.80191
23.8	4.79698
23.81	4.78185
23.82	4.83481
23.83	4.80191
23.84	4.85652
23.85	4.88317
23.86	4.8154
23.87	4.77329
23.88	4.83086
23.89	4.84665
23.9	4.83711
23.91	4.87428
23.92	4.8177
23.93	4.82823
23.94	4.84073
23.95	4.83185
23.96	4.83777
23.97	4.84336
23.98	4.82132
23.99	4.80849
24	4.80093
24.01	4.83349
24.02	4.81737
24.03	4.8506
24.04	4.82264
24.05	4.84895
24.06	4.83974
24.07	4.82198
24.08	4.82691
24.09	4.82395
24.1	4.83711
24.11	4.82527
24.12	4.79862
24.13	4.81737
24.14	4.80915
24.15	4.7904
24.16	4.77922
24.17	4.80191
24.18	4.8631
24.19	4.85126
24.2	4.82691
24.21	4.82955
24.22	4.83415
24.23	4.82988
24.24	4.86869
24.25	4.83645
24.26	4.77724
24.27	4.8029
24.28	4.86047
24.29	4.85126
24.3	4.84007
24.31	4.82494
24.32	4.82198
24.33	4.79172
24.34	4.79566
24.35	4.80948
24.36	4.81441
24.37	4.85915
24.38	4.79599
24.39	4.80224
24.4	4.82066
24.41	4.8529
24.42	4.81474
24.43	4.81869
24.44	4.87034
24.45	4.8506
24.46	4.82691
24.47	4.8381
24.48	4.86705
24.49	4.8302
24.5	4.79402
24.51	4.80948
24.52	4.82165
24.53	4.7927
24.54	4.84106
24.55	4.8302
24.56	4.85981
24.57	4.86771
24.58	4.81935
24.59	4.8302
24.6	4.85981
24.61	4.80257
24.62	4.77165
24.63	4.80093
24.64	4.85257
24.65	4.77691
24.66	4.84336
24.67	4.87527
24.68	4.84698
24.69	4.83547
24.7	4.84698
24.71	4.80027
24.72	4.8233
24.73	4.82461
24.74	4.84468
24.75	4.81441
24.76	4.82757
24.77	4.84106
24.78	4.82593
24.79	4.82494
24.8	4.80751
24.81	4.84468
24.82	4.82362
24.83	4.84731
24.84	4.84369
24.85	4.82066
24.86	4.83053
24.87	4.80257
24.88	4.76836
24.89	4.81376
24.9	4.8177
24.91	4.83481
24.92	4.8108
24.93	4.79533
24.94	4.78843
24.95	4.80948
24.96	4.81047
24.97	4.79994
24.98	4.84599
24.99	4.79566
25	4.80882
25.01	4.85915
25.02	4.80586
25.03	4.81409
25.04	4.87231
25.05	4.81244
25.06	4.81869
25.07	4.84534
25.08	4.81047
25.09	4.79336
25.1	4.82165
25.11	4.83284
25.12	4.85784
25.13	4.82297
25.14	4.82494
25.15	4.8006
25.16	4.81145
25.17	4.79501
25.18	4.85652
25.19	4.86573
25.2	4.83777
25.21	4.74303
25.22	4.77757
25.23	4.8256
25.24	4.82362
25.25	4.81211
25.26	4.80093
25.27	4.7904
25.28	4.82165
25.29	4.83119
25.3	4.82889
25.31	4.8381
25.32	4.80257
25.33	4.83974
25.34	4.82231
25.35	4.84468
25.36	4.83777
25.37	4.77329
25.38	4.8256
25.39	4.83382
25.4	4.8279
25.41	4.87428
25.42	4.85751
25.43	4.8177
25.44	4.80224
25.45	4.78152
25.46	4.84073
25.47	4.82889
25.48	4.82395
25.49	4.80093
25.5	4.7779
25.51	4.80849
25.52	4.82231
25.53	4.80158
25.54	4.83218
25.55	4.81343
25.56	4.78185
25.57	4.84764
25.58	4.84632
25.59	4.83415
25.6	4.82823
25.61	4.83415
25.62	4.77527
25.63	4.81737
25.64	4.84567
25.65	4.83876
25.66	4.83349
25.67	4.8256
25.68	4.78908
25.69	4.80455
25.7	4.77724
25.71	4.83448
25.72	4.86178
25.73	4.80882
25.74	4.78777
25.75	4.84764
25.76	4.78876
25.77	4.77329
25.78	4.76803
25.79	4.76441
25.8	4.82264
25.81	4.7927
25.82	4.80027
25.83	4.79106
25.84	4.86606
25.85	4.87428
25.86	4.79632
25.87	4.79731
25.88	4.78744
25.89	4.78908
25.9	4.81902
25.91	4.77823
25.92	4.79237
25.93	4.81441
25.94	4.82297
25.95	4.80849
25.96	4.84501
25.97	4.82922
25.98	4.8154
25.99	4.83941
26	4.84238
26.01	4.82165
26.02	4.83218
26.03	4.86507
26.04	4.81639
26.05	4.85389
26.06	4.7927
26.07	4.79764
26.08	4.81211
26.09	4.78941
26.1	4.82428
26.11	4.82593
26.12	4.84994
26.13	4.80093
26.14	4.82099
26.15	4.78876
26.16	4.79533
26.17	4.81047
26.18	4.81211
26.19	4.79369
26.2	4.82066
26.21	4.82362
26.22	4.85915
26.23	4.84567
26.24	4.80586
26.25	4.81737
26.26	4.8279
26.27	4.82066
26.28	4.91738
26.29	4.84172
26.3	4.83481
26.31	4.81047
26.32	4.80191
26.33	4.79139
26.34	4.82001
26.35	4.82724
26.36	4.82066
26.37	4.83909
26.38	4.81507
26.39	4.83053
26.4	4.8154
26.41	4.81573
26.42	4.79533
26.43	4.83744
26.44	4.79566
26.45	4.81047
26.46	4.77198
26.47	4.79501
26.48	4.8233
26.49	4.8233
26.5	4.84007
26.51	4.81343
26.52	4.84073
26.53	4.78218
26.54	4.79007
26.55	4.79172
26.56	4.79731
26.57	4.80619
26.58	4.80783
26.59	4.79862
26.6	4.80422
26.61	4.79172
26.62	4.78481
26.63	4.82593
26.64	4.80718
26.65	4.8256
26.66	4.87297
26.67	4.84632
26.68	4.79764
26.69	4.77856
26.7	4.82198
26.71	4.80553
26.72	4.81836
26.73	4.82889
26.74	4.79237
26.75	4.81211
26.76	4.78711
26.77	4.80191
26.78	4.80915
26.79	4.8302
26.8	4.79204
26.81	4.77329
26.82	4.82395
26.83	4.82362
26.84	4.82297
26.85	4.82856
26.86	4.80191
26.87	4.80849
26.88	4.78744
26.89	4.79007
26.9	4.76836
26.91	4.79961
26.92	4.8552
26.93	4.81737
26.94	4.82066
26.95	4.8279
26.96	4.85224
26.97	4.82691
26.98	4.80158
26.99	4.79895
27	4.75323
27.01	4.81606
27.02	4.84764
27.03	4.7983
27.04	4.82428
27.05	4.79698
27.06	4.78612
27.07	4.8029
27.08	4.80422
27.09	4.82527
27.1	4.79007
27.11	4.8154
27.12	4.82428
27.13	4.81178
27.14	4.81935
27.15	4.81178
27.16	4.80455
27.17	4.80849
27.18	4.80882
27.19	4.78547
27.2	4.79172
27.21	4.81836
27.22	4.84764
27.23	4.81343
27.24	4.77329
27.25	4.81902
27.26	4.81409
27.27	4.81935
27.28	4.80487
27.29	4.76968
27.3	4.77889
27.31	4.81902
27.32	4.77987
27.33	4.79698
27.34	4.80158
27.35	4.80093
27.36	4.77757
27.37	4.82099
27.38	4.82395
27.39	4.83053
27.4	4.79599
27.41	4.79566
27.42	4.80652
27.43	4.82395
27.44	4.80323
27.45	4.8154
27.46	4.82889
27.47	4.81836
27.48	4.78843
27.49	4.82132
27.5	4.81507
27.51	4.8256
27.52	4.77593
27.53	4.81935
27.54	4.78744
27.55	4.78086
27.56	4.77691
27.57	4.78645
27.58	4.87692
27.59	4.84106
27.6	4.79566
27.61	4.83645
27.62	4.8233
27.63	4.80422
27.64	4.82231
27.65	4.82362
27.66	4.79402
27.67	4.80323
27.68	4.80323
27.69	4.77724
27.7	4.77527
27.71	4.79797
27.72	4.84665
27.73	4.79402
27.74	4.80652
27.75	4.82198
27.76	4.86376
27.77	4.81968
27.78	4.80751
27.79	4.84731
27.8	4.78579
27.81	4.7631
27.82	4.82724
27.83	4.8381
27.84	4.77856
27.85	4.82494
27.86	4.79764
27.87	4.80191
27.88	4.78941
27.89	4.84435
27.9	4.81803
27.91	4.82626
27.92	4.78678
27.93	4.76244
27.94	4.79139
27.95	4.80849
27.96	4.82264
27.97	4.80257
27.98	4.80586
27.99	4.82297
28	4.80027
28.01	4.81869
28.02	4.79764
28.03	4.8052
28.04	4.83876
28.05	4.78941
28.06	4.79172
28.07	4.80652
28.08	4.77
28.09	4.82001
28.1	4.82889
28.11	4.83284
28.12	4.8006
28.13	4.77987
28.14	4.78218
28.15	4.76474
28.16	4.74994
28.17	4.77264
28.18	4.81803
28.19	4.78185
28.2	4.81409
28.21	4.79731
28.22	4.83251
28.23	4.84632
28.24	4.82034
28.25	4.79862
28.26	4.78053
28.27	4.83316
28.28	4.8381
28.29	4.79632
28.3	4.80487
28.31	4.81672
28.32	4.75093
28.33	4.80586
28.34	4.84534
28.35	4.82988
28.36	4.81639
28.37	4.77922
28.38	4.78152
28.39	4.78514
28.4	4.79731
28.41	4.83711
28.42	4.84106
28.43	4.81672
28.44	4.8108
28.45	4.81606
28.46	4.78283
28.47	4.7881
28.48	4.80191
28.49	4.83941
28.5	4.83152
28.51	4.83284
28.52	4.76211
28.53	4.80422
28.54	4.86507
28.55	4.83053
28.56	4.79106
28.57	4.75356
28.58	4.77461
28.59	4.81376
28.6	4.80487
28.61	4.80553
28.62	4.81968
28.63	4.80915
28.64	4.8381
28.65	4.80882
28.66	4.82132
28.67	4.81672
28.68	4.77889
28.69	4.8358
28.7	4.82922
28.71	4.78908
28.72	4.79895
28.73	4.79566
28.74	4.82034
28.75	4.7983
28.76	4.79764
28.77	4.78448
28.78	4.76737
28.79	4.80356
28.8	4.82428
28.81	4.83053
28.82	4.82362
28.83	4.82264
28.84	4.80586
28.85	4.80849
28.86	4.77033
28.87	4.77922
28.88	4.7802
28.89	4.8177
28.9	4.79501
28.91	4.75849
28.92	4.78777
28.93	4.80981
28.94	4.80553
28.95	4.78316
28.96	4.78908
28.97	4.80455
28.98	4.81606
28.99	4.76606
29	4.80685
29.01	4.81145
29.02	4.79862
29.03	4.81803
29.04	4.78382
29.05	4.81573
29.06	4.80191
29.07	4.81211
29.08	4.77297
29.09	4.80126
29.1	4.79665
29.11	4.79665
29.12	4.8108
29.13	4.79665
29.14	4.79172
29.15	4.76935
29.16	4.76836
29.17	4.80553
29.18	4.81409
29.19	4.79204
29.2	4.81441
29.21	4.82264
29.22	4.81047
29.23	4.81178
29.24	4.8154
29.25	4.76968
29.26	4.78349
29.27	4.8029
29.28	4.78349
29.29	4.80455
29.3	4.76836
29.31	4.79336
29.32	4.82626
29.33	4.7756
29.34	4.77066
29.35	4.81507
29.36	4.76408
29.37	4.79533
29.38	4.80981
29.39	4.77461
29.4	4.83547
29.41	4.83744
29.42	4.78645
29.43	4.74796
29.44	4.74764
29.45	4.78382
29.46	4.82626
29.47	4.82001
29.48	4.81112
29.49	4.82034
29.5	4.79007
29.51	4.81014
29.52	4.78086
29.53	4.79468
29.54	4.79665
29.55	4.77461
29.56	4.81507
29.57	4.80093
29.58	4.81014
29.59	4.8177
29.6	4.79599
29.61	4.84205
29.62	4.79698
29.63	4.7983
29.64	4.74139
29.65	4.79961
29.66	4.80981
29.67	4.86343
29.68	4.81047
29.69	4.80158
29.7	4.81737
29.71	4.79533
29.72	4.78843
29.73	4.79336
29.74	4.79435
29.75	4.77856
29.76	4.75849
29.77	4.79895
29.78	4.76902
29.79	4.77395
29.8	4.79731
29.81	4.77856
29.82	4.8381
29.83	4.80323
29.84	4.8006
29.85	4.8358
29.86	4.79632
29.87	4.75783
29.88	4.7631
29.89	4.75487
29.9	4.79665
29.91	4.81178
29.92	4.81737
29.93	4.7927
29.94	4.75816
29.95	4.8006
29.96	4.81606
29.97	4.81836
29.98	4.84468
29.99	4.82494
30	4.8052
30.01	4.82593
30.02	4.78119
30.03	4.8358
30.04	4.82757
30.05	4.84435
30.06	4.81507
30.07	4.79204
30.08	4.81047
30.09	4.81606
30.1	4.80783
30.11	4.81737
30.12	4.7983
30.13	4.78218
30.14	4.76902
30.15	4.8381
30.16	4.79797
30.17	4.78119
30.18	4.76869
30.19	4.8131
30.2	4.85586
30.21	4.79139
30.22	4.78876
30.23	4.77823
30.24	4.82626
30.25	4.79698
30.26	4.83382
30.27	4.85981
30.28	4.80455
30.29	4.80389
30.3	4.80882
30.31	4.8108
30.32	4.78777
30.33	4.83251
30.34	4.84303
30.35	4.81705
30.36	4.77395
30.37	4.7983
30.38	4.79698
30.39	4.79599
30.4	4.83678
30.41	4.81639
30.42	4.78579
30.43	4.79369
30.44	4.83777
30.45	4.8233
30.46	4.8177
30.47	4.83744
30.48	4.8302
30.49	4.77461
30.5	4.8483
30.51	4.84534
30.52	4.77724
30.53	4.77132
30.54	4.75915
30.55	4.81441
30.56	4.8029
30.57	4.77757
30.58	4.77198
30.59	4.80882
30.6	4.76935
30.61	4.79862
30.62	4.85356
30.63	4.83645
30.64	4.80356
30.65	4.81705
30.66	4.7575
30.67	4.79468
30.68	4.8381
30.69	4.84139
30.7	4.76178
30.71	4.73678
30.72	4.83251
30.73	4.83119
30.74	4.79665
30.75	4.80948
30.76	4.80455
30.77	4.86113
30.78	4.83777
30.79	4.80849
30.8	4.79797
30.81	4.8233
30.82	4.82034
30.83	4.80158
30.84	4.81935
30.85	4.83086
30.86	4.83678
30.87	4.77297
30.88	4.74599
30.89	4.77757
30.9	4.81277
30.91	4.78086
30.92	4.77297
30.93	4.82132
30.94	4.81343
30.95	4.79336
30.96	4.78448
30.97	4.76145
30.98	4.78448
30.99	4.80751
31	4.76244
31.01	4.77527
31.02	4.81573
31.03	4.78185
31.04	4.81737
31.05	4.7904
31.06	4.78316
31.07	4.78711
31.08	4.75849
31.09	4.74829
31.1	4.79237
31.11	4.77
31.12	4.81836
31.13	4.82231
31.14	4.81672
31.15	4.76902
31.16	4.80619
31.17	4.81935
31.18	4.75915
31.19	4.82691
31.2	4.80882
31.21	4.83382
31.22	4.80685
31.23	4.80718
31.24	4.77165
31.25	4.80586
31.26	4.79369
31.27	4.80652
31.28	4.80257
31.29	4.84238
31.3	4.81376
31.31	4.78547
31.32	4.78941
31.33	4.82757
31.34	4.76573
31.35	4.81672
31.36	4.83645
31.37	4.77987
31.38	4.79106
31.39	4.8552
31.4	4.79468
31.41	4.80191
31.42	4.80323
31.43	4.79862
31.44	4.80224
31.45	4.76244
31.46	4.81639
31.47	4.76573
31.48	4.80126
31.49	4.8358
31.5	4.77231
31.51	4.76474
31.52	4.79764
31.53	4.82428
31.54	4.82066
31.55	4.80257
31.56	4.80981
31.57	4.80422
31.58	4.80093
31.59	4.82132
31.6	4.80718
31.61	4.78152
31.62	4.8154
31.63	4.79139
31.64	4.79237
31.65	4.81112
31.66	4.76178
31.67	4.79632
31.68	4.81507
31.69	4.81047
31.7	4.79402
31.71	4.80126
31.72	4.77198
31.73	4.80191
31.74	4.78053
31.75	4.77625
31.76	4.81277
31.77	4.80882
31.78	4.80158
31.79	4.81244
31.8	4.8006
31.81	4.81441
31.82	4.8233
31.83	4.78185
31.84	4.80751
31.85	4.78382
31.86	4.79501
31.87	4.76441
31.88	4.77987
31.89	4.79994
31.9	4.79073
31.91	4.80981
31.92	4.76178
31.93	4.78711
31.94	4.80849
31.95	4.77461
31.96	4.81178
31.97	4.80783
31.98	4.80586
31.99	4.84369
32	4.8177
32.01	4.78086
32.02	4.77428
32.03	4.75553
32.04	4.78547
32.05	4.81047
32.06	4.80816
32.07	4.78514
32.08	4.77231
32.09	4.79336
32.1	4.75389
32.11	4.79731
32.12	4.75619
32.13	4.745
32.14	4.77231
32.15	4.77856
32.16	4.78514
32.17	4.78579
32.18	4.79073
32.19	4.7983
32.2	4.8006
32.21	4.8029
32.22	4.78086
32.23	4.78185
32.24	4.80257
32.25	4.80783
32.26	4.81968
32.27	4.77264
32.28	4.78119
32.29	4.77297
32.3	4.80882
32.31	4.82034
32.32	4.79797
32.33	4.80783
32.34	4.79895
32.35	4.83284
32.36	4.8052
32.37	4.79764
32.38	4.80948
32.39	4.81705
32.4	4.79731
32.41	4.81277
32.42	4.83152
32.43	4.78612
32.44	4.81507
32.45	4.79073
32.46	4.82889
32.47	4.78974
32.48	4.78579
32.49	4.78876
32.5	4.80685
32.51	4.78514
32.52	4.78876
32.53	4.79599
32.54	4.80389
32.55	4.8006
32.56	4.80619
32.57	4.78283
32.58	4.8131
32.59	4.79994
32.6	4.8006
32.61	4.78777
32.62	4.82066
32.63	4.79204
32.64	4.81869
32.65	4.78876
32.66	4.76211
32.67	4.7552
32.68	4.76244
32.69	4.80553
32.7	4.79928
32.71	4.79303
32.72	4.77395
32.73	4.78053
32.74	4.80158
32.75	4.79665
32.76	4.81573
32.77	4.83316
32.78	4.77165
32.79	4.77856
32.8	4.75718
32.81	4.80257
32.82	4.81014
32.83	4.77625
32.84	4.78941
32.85	4.75783
32.86	4.83678
32.87	4.78678
32.88	4.78744
32.89	4.76244
32.9	4.74764
32.91	4.8154
32.92	4.79435
32.93	4.83481
32.94	4.79533
32.95	4.80981
32.96	4.80915
32.97	4.80849
32.98	4.76639
32.99	4.76737
33	4.79402
33.01	4.80224
33.02	4.77823
33.03	4.77264
33.04	4.77428
33.05	4.79599
33.06	4.8279
33.07	4.7654
33.08	4.79599
33.09	4.76935
33.1	4.7404
33.11	4.77889
33.12	4.78547
33.13	4.81376
33.14	4.81047
33.15	4.79632
33.16	4.79073
33.17	4.76112
33.18	4.80027
33.19	4.82362
33.2	4.75487
33.21	4.74895
33.22	4.8279
33.23	4.78218
33.24	4.79402
33.25	4.84369
33.26	4.83645
33.27	4.75125
33.28	4.75882
33.29	4.75619
33.3	4.78086
33.31	4.77428
33.32	4.76408
33.33	4.76211
33.34	4.76573
33.35	4.77922
33.36	4.79139
33.37	4.80422
33.38	4.81573
33.39	4.76441
33.4	4.78251
33.41	4.79336
33.42	4.79632
33.43	4.79665
33.44	4.77231
33.45	4.84435
33.46	4.83415
33.47	4.75125
33.48	4.79369
33.49	4.77987
33.5	4.75553
33.51	4.77198
33.52	4.8256
33.53	4.81277
33.54	4.79106
33.55	4.78283
33.56	4.80455
33.57	4.82165
33.58	4.78349
33.59	4.77264
33.6	4.82659
33.61	4.77264
33.62	4.78645
33.63	4.77494
33.64	4.78152
33.65	4.76211
33.66	4.80027
33.67	4.80126
33.68	4.78218
33.69	4.81935
33.7	4.84698
33.71	4.79237
33.72	4.79073
33.73	4.80882
33.74	4.83218
33.75	4.81836
33.76	4.78777
33.77	4.80455
33.78	4.81869
33.79	4.79402
33.8	4.80915
33.81	4.80093
33.82	4.80389
33.83	4.81639
33.84	4.77987
33.85	4.80915
33.86	4.81112
33.87	4.84073
33.88	4.84501
33.89	4.80323
33.9	4.81112
33.91	4.77297
33.92	4.80191
33.93	4.80224
33.94	4.77132
33.95	4.8006
33.96	4.8256
33.97	4.76639
33.98	4.77658
33.99	4.81178
34	4.8279
34.01	4.80586
34.02	4.79073
34.03	4.82988
34.04	4.82165
34.05	4.76869
34.06	4.80553
34.07	4.80685
34.08	4.80619
34.09	4.84073
34.1	4.79303
34.11	4.7904
34.12	4.75652
34.13	4.78316
34.14	4.83711
34.15	4.7983
34.16	4.81277
34.17	4.80455
34.18	4.78316
34.19	4.77231
34.2	4.81639
34.21	4.81705
34.22	4.7983
34.23	4.76968
34.24	4.75981
34.25	4.78415
34.26	4.80718
34.27	4.76704
34.28	4.7802
34.29	4.81047
34.3	4.8381
34.31	4.83349
34.32	4.79139
34.33	4.79336
34.34	4.82659
34.35	4.79172
34.36	4.78974
34.37	4.74435
34.38	4.78908
34.39	4.8177
34.4	4.78349
34.41	4.75389
34.42	4.81902
34.43	4.80882
34.44	4.80586
34.45	4.81507
34.46	4.78876
34.47	4.79797
34.48	4.79303
34.49	4.82198
34.5	4.83316
34.51	4.76441
34.52	4.78152
34.53	4.7779
34.54	4.82034
34.55	4.8358
34.56	4.80224
34.57	4.7802
34.58	4.77198
34.59	4.78119
34.6	4.7529
34.61	4.80455
34.62	4.77066
34.63	4.77823
34.64	4.78349
34.65	4.78053
34.66	4.7631
34.67	4.82165
34.68	4.83744
34.69	4.78777
34.7	4.78711
34.71	4.78316
34.72	4.76672
34.73	4.79533
34.74	4.78218
34.75	4.81409
34.76	4.77987
34.77	4.77461
34.78	4.82231
34.79	4.82231
34.8	4.77329
34.81	4.78382
34.82	4.77494
34.83	4.78843
34.84	4.80948
34.85	4.78382
34.86	4.80257
34.87	4.77823
34.88	4.77264
34.89	4.80685
34.9	4.77494
34.91	4.77987
34.92	4.75093
34.93	4.81376
34.94	4.81376
34.95	4.79106
34.96	4.81211
34.97	4.79336
34.98	4.77625
34.99	4.79665
35	4.78678
35.01	4.80849
35.02	4.78744
35.03	4.81474
35.04	4.77395
35.05	4.74961
35.06	4.78876
35.07	4.75586
35.08	4.77264
35.09	4.76441
35.1	4.79172
35.11	4.79468
35.12	4.81376
35.13	4.78547
35.14	4.81376
35.15	4.80191
35.16	4.76968
35.17	4.81573
35.18	4.81178
35.19	4.79862
35.2	4.74007
35.21	4.74994
35.22	4.75619
35.23	4.78283
35.24	4.79599
35.25	4.80849
35.26	4.7654
35.27	4.77856
35.28	4.78711
35.29	4.79665
35.3	4.81014
35.31	4.77395
35.32	4.7381
35.33	4.73086
35.34	4.80126
35.35	4.77
35.36	4.76902
35.37	4.81606
35.38	4.78349
35.39	4.8131
35.4	4.80685
35.41	4.80356
35.42	4.80849
35.43	4.79468
35.44	4.80191
35.45	4.75356
35.46	4.79797
35.47	4.79237
35.48	4.80455
35.49	4.80783
35.5	4.81047
35.51	4.81145
35.52	4.78974
35.53	4.79204
35.54	4.79566
35.55	4.77231
35.56	4.7802
35.57	4.79599
35.58	4.83119
35.59	4.8154
35.6	4.80027
35.61	4.77132
35.62	4.80915
35.63	4.81573
35.64	4.81178
35.65	4.77198
35.66	4.8177
35.67	4.79172
35.68	4.77658
35.69	4.80783
35.7	4.79369
35.71	4.80126
35.72	4.76902
35.73	4.74435
35.74	4.75718
35.75	4.79862
35.76	4.80191
35.77	4.82198
35.78	4.74632
35.79	4.78415
35.8	4.78612
35.81	4.78612
35.82	4.76112
35.83	4.75816
35.84	4.80619
35.85	4.85192
35.86	4.80191
35.87	4.80224
35.88	4.82494
35.89	4.76672
35.9	4.78645
35.91	4.77987
35.92	4.74435
35.93	4.7904
35.94	4.79566
35.95	4.79172
35.96	4.82724
35.97	4.77954
35.98	4.78218
35.99	4.84435
36	4.80389
36.01	4.82362
36.02	4.8177
36.03	4.78711
36.04	4.78251
36.05	4.75685
36.06	4.80323
36.07	4.76869
36.08	4.77362
36.09	4.74829
36.1	4.79599
36.11	4.79106
36.12	4.79468
36.13	4.77856
36.14	4.79501
36.15	4.79106
36.16	4.79336
36.17	4.80685
36.18	4.80915
36.19	4.76343
36.2	4.77165
36.21	4.74862
36.22	4.76902
36.23	4.82757
36.24	4.79369
36.25	4.78547
36.26	4.77527
36.27	4.78843
36.28	4.80224
36.29	4.75849
36.3	4.80126
36.31	4.76047
36.32	4.81244
36.33	4.85948
36.34	4.82395
36.35	4.80191
36.36	4.82691
36.37	4.8006
36.38	4.79172
36.39	4.81178
36.4	4.78448
36.41	4.78612
36.42	4.78349
36.43	4.76145
36.44	4.74764
36.45	4.77165
36.46	4.78349
36.47	4.79237
36.48	4.79566
36.49	4.7631
36.5	4.78218
36.51	4.78711
36.52	4.81507
36.53	4.83185
36.54	4.81737
36.55	4.83349
36.56	4.78678
36.57	4.80191
36.58	4.77099
36.59	4.77264
36.6	4.74435
36.61	4.77362
36.62	4.77132
36.63	4.78415
36.64	4.73053
36.65	4.76277
36.66	4.78316
36.67	4.78777
36.68	4.77264
36.69	4.79764
36.7	4.79961
36.71	4.78908
36.72	4.80158
36.73	4.78152
36.74	4.78843
36.75	4.78349
36.76	4.82066
36.77	4.79895
36.78	4.79073
36.79	4.79862
36.8	4.77527
36.81	4.7575
36.82	4.76704
36.83	4.7802
36.84	4.78251
36.85	4.79336
36.86	4.78941
36.87	4.75389
36.88	4.76047
36.89	4.7756
36.9	4.76902
36.91	4.79698
36.92	4.73744
36.93	4.75783
36.94	4.83349
36.95	4.84928
36.96	4.82001
36.97	4.79599
36.98	4.80751
36.99	4.80685
37	4.78415
37.01	4.78974
37.02	4.79501
37.03	4.79468
37.04	4.79468
37.05	4.82264
37.06	4.76244
37.07	4.74829
37.08	4.7904
37.09	4.82198
37.1	4.80751
37.11	4.78678
37.12	4.80816
37.13	4.75915
37.14	4.75224
37.15	4.75454
37.16	4.75421
37.17	4.77297
37.18	4.81376
37.19	4.77
37.2	4.75389
37.21	4.74994
37.22	4.7404
37.23	4.77264
37.24	4.79435
37.25	4.80981
37.26	4.82955
37.27	4.77461
37.28	4.75619
37.29	4.73777
37.3	4.78612
37.31	4.78185
37.32	4.79731
37.33	4.74731
37.34	4.79632
37.35	4.82099
37.36	4.80652
37.37	4.77428
37.38	4.75783
37.39	4.75356
37.4	4.76869
37.41	4.78711
37.42	4.76014
37.43	4.7881
37.44	4.77329
37.45	4.78382
37.46	4.80849
37.47	4.78514
37.48	4.79073
37.49	4.75981
37.5	4.75783
37.51	4.74829
37.52	4.79468
37.53	4.79336
37.54	4.74731
37.55	4.77856
37.56	4.78218
37.57	4.79303
37.58	4.8256
37.59	4.79533
37.6	4.80356
37.61	4.76869
37.62	4.82264
37.63	4.80323
37.64	4.77987
37.65	4.80586
37.66	4.79698
37.67	4.82823
37.68	4.80389
37.69	4.81178
37.7	4.79336
37.71	4.77198
37.72	4.76343
37.73	4.84172
37.74	4.77593
37.75	4.80389
37.76	4.77889
37.77	4.80816
37.78	4.83941
37.79	4.81014
37.8	4.79764
37.81	4.81145
37.82	4.80685
37.83	4.80257
37.84	4.76573
37.85	4.79435
37.86	4.80487
37.87	4.77856
37.88	4.78283
37.89	4.82494
37.9	4.82659
37.91	4.76803
37.92	4.78612
37.93	4.80685
37.94	4.79895
37.95	4.77428
37.96	4.77889
37.97	4.7802
37.98	4.80783
37.99	4.78711
38	4.78579
38.01	4.83448
38.02	4.8154
38.03	4.74435
38.04	4.75224
38.05	4.83185
38.06	4.8427
38.07	4.82823
38.08	4.74796
38.09	4.78415
38.1	4.78316
38.11	4.77264
38.12	4.75849
38.13	4.77
38.14	4.77132
38.15	4.78481
38.16	4.81606
38.17	4.84106
38.18	4.76573
38.19	4.80422
38.2	4.7779
38.21	4.76803
38.22	4.7881
38.23	4.80158
38.24	4.79928
38.25	4.79797
38.26	4.79139
38.27	4.78711
38.28	4.75981
38.29	4.82395
38.3	4.81639
38.31	4.76014
38.32	4.82691
38.33	4.76836
38.34	4.7575
38.35	4.80455
38.36	4.80455
38.37	4.78744
38.38	4.75093
38.39	4.74566
38.4	4.79961
38.41	4.77889
38.42	4.79435
38.43	4.80816
38.44	4.80126
38.45	4.79665
38.46	4.81112
38.47	4.79599
38.48	4.8608
38.49	4.80882
38.5	4.76869
38.51	4.77954
38.52	4.76968
38.53	4.83218
38.54	4.76047
38.55	4.74961
38.56	4.8233
38.57	4.79468
38.58	4.80849
38.59	4.82132
38.6	4.77856
38.61	4.8154
38.62	4.81672
38.63	4.79435
38.64	4.77954
38.65	4.80126
38.66	4.80126
38.67	4.7677
38.68	4.76968
38.69	4.78349
38.7	4.79862
38.71	4.78908
38.72	4.75487
38.73	4.75356
38.74	4.78218
38.75	4.75882
38.76	4.76935
38.77	4.79731
38.78	4.76573
38.79	4.76836
38.8	4.79369
38.81	4.78251
38.82	4.73777
38.83	4.77297
38.84	4.8006
38.85	4.78514
38.86	4.80455
38.87	4.79303
38.88	4.78514
38.89	4.75652
38.9	4.80191
38.91	4.82034
38.92	4.8256
38.93	4.76211
38.94	4.75882
38.95	4.78908
38.96	4.7779
38.97	4.8256
38.98	4.8029
38.99	4.80915
39	4.75553
39.01	4.77954
39.02	4.77231
39.03	4.72066
39.04	4.7529
39.05	4.81441
39.06	4.78612
39.07	4.7802
39.08	4.77033
39.09	4.77461
39.1	4.80685
39.11	4.75421
39.12	4.75718
39.13	4.79764
39.14	4.77658
39.15	4.77033
39.16	4.8029
39.17	4.80257
39.18	4.8006
39.19	4.79994
39.2	4.84073
39.21	4.81112
39.22	4.77494
39.23	4.79204
39.24	4.78251
39.25	4.81376
39.26	4.78185
39.27	4.79501
39.28	4.79172
39.29	4.73678
39.3	4.81376
39.31	4.78218
39.32	4.79369
39.33	4.78777
39.34	4.80093
39.35	4.82231
39.36	4.8233
39.37	4.79336
39.38	4.81277
39.39	4.7756
39.4	4.78119
39.41	4.76803
39.42	4.77264
39.43	4.79139
39.44	4.82395
39.45	4.81672
39.46	4.8233
39.47	4.8256
39.48	4.76803
39.49	4.75257
39.5	4.78579
39.51	4.79369
39.52	4.78349
39.53	4.79303
39.54	4.79139
39.55	4.77757
39.56	4.81474
39.57	4.77264
39.58	4.75783
39.59	4.77625
39.6	4.74895
39.61	4.76606
39.62	4.78876
39.63	4.78744
39.64	4.78283
39.65	4.77691
39.66	4.78547
39.67	4.72856
39.68	4.76869
39.69	4.79698
39.7	4.76836
39.71	4.7983
39.72	4.74994
39.73	4.76047
39.74	4.81047
39.75	4.81474
39.76	4.79533
39.77	4.78415
39.78	4.79698
39.79	4.77527
39.8	4.76112
39.81	4.74928
39.82	4.77889
39.83	4.78941
39.84	4.79172
39.85	4.80257
39.86	4.81409
39.87	4.79073
39.88	4.7677
39.89	4.76935
39.9	4.7927
39.91	4.78185
39.92	4.72921
39.93	4.78086
39.94	4.76869
39.95	4.74895
39.96	4.75718
39.97	4.80487
39.98	4.8177
39.99	4.78251
40	4.79994
40.01	4.79073
40.02	4.81573
40.03	4.8052
40.04	4.78843
40.05	4.79435
40.06	4.79566
40.07	4.78612
40.08	4.79928
40.09	4.79402
40.1	4.77889
40.11	4.79369
40.12	4.78185
40.13	4.79533
40.14	4.75948
40.15	4.81244
40.16	4.78415
40.17	4.74961
40.18	4.76869
40.19	4.77461
40.2	4.79862
40.21	4.81145
40.22	4.77724
40.23	4.78941
40.24	4.78941
40.25	4.8177
40.26	4.74994
40.27	4.76112
40.28	4.78678
40.29	4.76902
40.3	4.78645
40.31	4.7904
40.32	4.75586
40.33	4.78152
40.34	4.76079
40.35	4.79303
40.36	4.75783
40.37	4.76014
40.38	4.78941
40.39	4.82297
40.4	4.80783
40.41	4.79731
40.42	4.82297
40.43	4.76935
40.44	4.79435
40.45	4.73842
40.46	4.74961
40.47	4.77264
40.48	4.77132
40.49	4.78645
40.5	4.79204
40.51	4.75882
40.52	4.79862
40.53	4.77889
40.54	4.7881
40.55	4.75849
40.56	4.78185
40.57	4.78481
40.58	4.78612
40.59	4.81244
40.6	4.76902
40.61	4.78448
40.62	4.77625
40.63	4.78053
40.64	4.77856
40.65	4.75191
40.66	4.80915
40.67	4.76441
40.68	4.74007
40.69	4.83185
40.7	4.83843
40.71	4.78053
40.72	4.79566
40.73	4.79204
40.74	4.75421
40.75	4.79566
40.76	4.80191
40.77	4.77856
40.78	4.77231
40.79	4.79994
40.8	4.80652
40.81	4.80783
40.82	4.80619
40.83	4.80816
40.84	4.77987
40.85	4.79928
40.86	4.80849
40.87	4.73842
40.88	4.76704
40.89	4.80126
40.9	4.85027
40.91	4.78908
40.92	4.78711
40.93	4.74599
40.94	4.74007
40.95	4.76902
40.96	4.78777
40.97	4.79139
40.98	4.77395
40.99	4.79073
41	4.77922
41.01	4.78448
41.02	4.79007
41.03	4.80882
41.04	4.80718
41.05	4.82428
41.06	4.81573
41.07	4.80849
41.08	4.76014
41.09	4.77889
41.1	4.76244
41.11	4.75323
41.12	4.77724
41.13	4.82395
41.14	4.77922
41.15	4.78579
41.16	4.83711
41.17	4.80487
41.18	4.80191
41.19	4.82066
41.2	4.80356
41.21	4.75191
41.22	4.8052
41.23	4.79468
41.24	4.8052
41.25	4.75915
41.26	4.7404
41.27	4.76639
41.28	4.82034
41.29	4.74139
41.3	4.78086
41.31	4.8154
41.32	4.78481
41.33	4.77297
41.34	4.8006
41.35	4.80422
41.36	4.76178
41.37	4.78645
41.38	4.72428
41.39	4.75783
41.4	4.76836
41.41	4.73645
41.42	4.75125
41.43	4.79928
41.44	4.79468
41.45	4.74204
41.46	4.80455
41.47	4.77823
41.48	4.78579
41.49	4.77066
41.5	4.75389
41.51	4.72461
41.52	4.77593
41.53	4.78843
41.54	4.80356
41.55	4.76211
41.56	4.75224
41.57	4.74468
41.58	4.81047
41.59	4.80849
41.6	4.79566
41.61	4.76573
41.62	4.77099
41.63	4.76672
41.64	4.78579
41.65	4.76803
41.66	4.82034
41.67	4.75553
41.68	4.75882
41.69	4.77362
41.7	4.79106
41.71	4.78415
41.72	4.76343
41.73	4.74665
41.74	4.78382
41.75	4.74764
41.76	4.77987
41.77	4.80356
41.78	4.79764
41.79	4.8052
41.8	4.78678
41.81	4.77329
41.82	4.79007
41.83	4.8256
41.84	4.82132
41.85	4.80718
41.86	4.77329
41.87	4.78283
41.88	4.76737
41.89	4.74533
41.9	4.77066
41.91	4.76112
41.92	4.78645
41.93	4.73875
41.94	4.77231
41.95	4.76375
41.96	4.77724
41.97	4.8006
41.98	4.7983
41.99	4.77395
42	4.80487
42.01	4.76441
42.02	4.77658
42.03	4.78251
42.04	4.74764
42.05	4.7677
42.06	4.75224
42.07	4.80224
42.08	4.77527
42.09	4.77461
42.1	4.78283
42.11	4.80553
42.12	4.77527
42.13	4.78908
42.14	4.79862
42.15	4.82297
42.16	4.82922
42.17	4.78974
42.18	4.75619
42.19	4.78119
42.2	4.76014
42.21	4.79139
42.22	4.82132
42.23	4.84139
42.24	4.77165
42.25	4.77625
42.26	4.79533
42.27	4.82395
42.28	4.79073
42.29	4.75915
42.3	4.76507
42.31	4.78185
42.32	4.75619
42.33	4.72395
42.34	4.77264
42.35	4.81409
42.36	4.82231
42.37	4.77987
42.38	4.79303
42.39	4.77593
42.4	4.77428
42.41	4.74632
42.42	4.74468
42.43	4.79797
42.44	4.79599
42.45	4.77329
42.46	4.7881
42.47	4.77297
42.48	4.78185
42.49	4.78448
42.5	4.81014
42.51	4.82856
42.52	4.80783
42.53	4.76737
42.54	4.79468
42.55	4.81507
42.56	4.77099
42.57	4.80356
42.58	4.79698
42.59	4.82593
42.6	4.79106
42.61	4.73711
42.62	4.78218
42.63	4.78349
42.64	4.81047
42.65	4.78086
42.66	4.80126
42.67	4.78283
42.68	4.74829
42.69	4.78152
42.7	4.82428
42.71	4.8302
42.72	4.79073
42.73	4.78218
42.74	4.75553
42.75	4.76704
42.76	4.79928
42.77	4.79369
42.78	4.78415
42.79	4.80389
42.8	4.79303
42.81	4.79435
42.82	4.78119
42.83	4.75981
42.84	4.79566
42.85	4.78612
42.86	4.74533
42.87	4.72823
42.88	4.78908
42.89	4.75224
42.9	4.75816
42.91	4.78448
42.92	4.79501
42.93	4.80915
42.94	4.74994
42.95	4.74237
42.96	4.77362
42.97	4.82691
42.98	4.77264
42.99	4.75224
43	4.78711
43.01	4.81244
43.02	4.81737
43.03	4.78119
43.04	4.77625
43.05	4.81639
43.06	4.82757
43.07	4.7575
43.08	4.76803
43.09	4.77264
43.1	4.79172
43.11	4.76935
43.12	4.80882
43.13	4.78382
43.14	4.77329
43.15	4.79073
43.16	4.81145
43.17	4.77165
43.18	4.7381
43.19	4.74369
43.2	4.82066
43.21	4.79303
43.22	4.75389
43.23	4.74402
43.24	4.77757
43.25	4.76935
43.26	4.74796
43.27	4.78349
43.28	4.78941
43.29	4.80816
43.3	4.8029
43.31	4.78908
43.32	4.79599
43.33	4.75454
43.34	4.73119
43.35	4.78876
43.36	4.7983
43.37	4.76474
43.38	4.78777
43.39	4.76737
43.4	4.82264
43.41	4.7927
43.42	4.75619
43.43	4.80158
43.44	4.80553
43.45	4.83053
43.46	4.75093
43.47	4.78185
43.48	4.78316
43.49	4.75652
43.5	4.79862
43.51	4.78908
43.52	4.77033
43.53	4.75027
43.54	4.78777
43.55	4.78908
43.56	4.76178
43.57	4.75356
43.58	4.7983
43.59	4.77494
43.6	4.78908
43.61	4.77527
43.62	4.77165
43.63	4.78415
43.64	4.75586
43.65	4.77527
43.66	4.82856
43.67	4.74698
43.68	4.78415
43.69	4.83218
43.7	4.7654
43.71	4.80948
43.72	4.75816
43.73	4.73349
43.74	4.75882
43.75	4.82494
43.76	4.78448
43.77	4.79073
43.78	4.81474
43.79	4.7881
43.8	4.72954
43.81	4.72461
43.82	4.75257
43.83	4.73316
43.84	4.75323
43.85	4.74731
43.86	4.78777
43.87	4.80158
43.88	4.81803
43.89	4.79895
43.9	4.76178
43.91	4.78514
43.92	4.79007
43.93	4.81409
43.94	4.8052
43.95	4.79073
43.96	4.79336
43.97	4.77264
43.98	4.80553
43.99	4.81376
44	4.79402
44.01	4.7881
44.02	4.77625
44.03	4.7881
44.04	4.77297
44.05	4.80323
44.06	4.74533
44.07	4.7927
44.08	4.78612
44.09	4.73744
44.1	4.82626
44.11	4.80422
44.12	4.79369
44.13	4.79468
44.14	4.80751
44.15	4.76145
44.16	4.75421
44.17	4.83284
44.18	4.78349
44.19	4.8108
44.2	4.80191
44.21	4.7927
44.22	4.75652
44.23	4.74171
44.24	4.79106
44.25	4.75421
44.26	4.76079
44.27	4.75487
44.28	4.7779
44.29	4.77823
44.3	4.77691
44.31	4.77823
44.32	4.76211
44.33	4.81047
44.34	4.7983
44.35	4.78678
44.36	4.78612
44.37	4.76672
44.38	4.73711
44.39	4.78678
44.4	4.78612
44.41	4.77494
44.42	4.74994
44.43	4.80323
44.44	4.78612
44.45	4.78382
44.46	4.82132
44.47	4.79566
44.48	4.81409
44.49	4.7677
44.5	4.77395
44.51	4.79303
44.52	4.7779
44.53	4.80455
44.54	4.74632
44.55	4.76277
44.56	4.77033
44.57	4.80783
44.58	4.82955
44.59	4.7927
44.6	4.79007
44.61	4.76968
44.62	4.80652
44.63	4.79665
44.64	4.77165
44.65	4.75125
44.66	4.75454
44.67	4.73086
44.68	4.75487
44.69	4.73514
44.7	4.77033
44.71	4.82034
44.72	4.78283
44.73	4.81376
44.74	4.76375
44.75	4.77231
44.76	4.75553
44.77	4.72889
44.78	4.78645
44.79	4.77329
44.8	4.78843
44.81	4.79698
44.82	4.76869
44.83	4.75158
44.84	4.74303
44.85	4.75981
44.86	4.78481
44.87	4.7575
44.88	4.79402
44.89	4.78579
44.9	4.79665
44.91	4.78711
44.92	4.8256
44.93	4.81112
44.94	4.74796
44.95	4.82691
44.96	4.77625
44.97	4.75158
44.98	4.78876
44.99	4.79007
45	4.78316
45.01	4.80882
45.02	4.81112
45.03	4.76112
45.04	4.72921
45.05	4.79698
45.06	4.81277
45.07	4.79599
45.08	4.77461
45.09	4.77757
45.1	4.77461
45.11	4.78218
45.12	4.78481
45.13	4.77428
45.14	4.79566
45.15	4.7904
45.16	4.77132
45.17	4.79073
45.18	4.82955
45.19	4.76441
45.2	4.78678
45.21	4.81935
45.22	4.82264
45.23	4.77362
45.24	4.78218
45.25	4.7802
45.26	4.77132
45.27	4.80455
45.28	4.78711
45.29	4.74566
45.3	4.76375
45.31	4.76639
45.32	4.80652
45.33	4.8052
45.34	4.79172
45.35	4.76639
45.36	4.78349
45.37	4.73086
45.38	4.71836
45.39	4.73217
45.4	4.77823
45.41	4.80093
45.42	4.77198
45.43	4.75882
45.44	4.77691
45.45	4.82362
45.46	4.81474
45.47	4.80389
45.48	4.7654
45.49	4.8154
45.5	4.78514
45.51	4.76112
45.52	4.78316
45.53	4.74435
45.54	4.78448
45.55	4.7654
45.56	4.79139
45.57	4.77954
45.58	4.76704
45.59	4.76047
45.6	4.78645
45.61	4.81376
45.62	4.74073
45.63	4.78941
45.64	4.81277
45.65	4.79369
45.66	4.73974
45.67	4.72757
45.68	4.77033
45.69	4.80981
45.7	4.77494
45.71	4.77033
45.72	4.75981
45.73	4.79106
45.74	4.80093
45.75	4.7654
45.76	4.79106
45.77	4.79369
45.78	4.79336
45.79	4.83349
45.8	4.79336
45.81	4.73053
45.82	4.7506
45.83	4.74566
45.84	4.7404
45.85	4.78547
45.86	4.77922
45.87	4.74435
45.88	4.75849
45.89	4.76672
45.9	4.77231
45.91	4.77329
45.92	4.78678
45.93	4.77757
45.94	4.74829
45.95	4.7381
45.96	4.81211
45.97	4.80718
45.98	4.77231
45.99	4.76803
46	4.78415
46.01	4.78053
46.02	4.7756
46.03	4.83349
46.04	4.78448
46.05	4.76112
46.06	4.77889
46.07	4.79961
46.08	4.79501
46.09	4.80849
46.1	4.77362
46.11	4.75783
46.12	4.77231
46.13	4.7881
46.14	4.80718
46.15	4.8029
46.16	4.78152
46.17	4.73579
46.18	4.78941
46.19	4.79369
46.2	4.73316
46.21	4.83974
46.22	4.79928
46.23	4.76639
46.24	4.80948
46.25	4.79336
46.26	4.78086
46.27	4.77954
46.28	4.77395
46.29	4.79336
46.3	4.7904
46.31	4.78349
46.32	4.75421
46.33	4.78415
46.34	4.79632
46.35	4.76112
46.36	4.79303
46.37	4.77264
46.38	4.79172
46.39	4.75191
46.4	4.7927
46.41	4.78777
46.42	4.78514
46.43	4.79007
46.44	4.78744
46.45	4.80126
46.46	4.79994
46.47	4.74533
46.48	4.76935
46.49	4.74566
46.5	4.72625
46.51	4.7325
46.52	4.77264
46.53	4.80224
46.54	4.81672
46.55	4.81705
46.56	4.78678
46.57	4.74468
46.58	4.80487
46.59	4.79599
46.6	4.76968
46.61	4.7552
46.62	4.7881
46.63	4.80553
46.64	4.82165
46.65	4.78448
46.66	4.79961
46.67	4.79139
46.68	4.81277
46.69	4.76277
46.7	4.76343
46.71	4.77
46.72	4.82034
46.73	4.76737
46.74	4.77527
46.75	4.78283
46.76	4.81277
46.77	4.76014
46.78	4.74402
46.79	4.78382
46.8	4.80751
46.81	4.80981
46.82	4.80158
46.83	4.76507
46.84	4.78678
46.85	4.83251
46.86	4.79402
46.87	4.74796
46.88	4.74862
46.89	4.7927
46.9	4.77593
46.91	4.7756
46.92	4.77461
46.93	4.76803
46.94	4.77593
46.95	4.80224
46.96	4.76803
46.97	4.79435
46.98	4.80553
46.99	4.76639
47	4.74073
47.01	4.75487
47.02	4.82132
47.03	4.76672
47.04	4.76112
47.05	4.78185
47.06	4.82889
47.07	4.84435
47.08	4.73777
47.09	4.77132
47.1	4.79928
47.11	4.80027
47.12	4.79599
47.13	4.76869
47.14	4.76507
47.15	4.80224
47.16	4.77593
47.17	4.78448
47.18	4.79862
47.19	4.76935
47.2	4.77494
47.21	4.79797
47.22	4.80126
47.23	4.78152
47.24	4.77132
47.25	4.75421
47.26	4.79073
47.27	4.79336
47.28	4.81409
47.29	4.77757
47.3	4.74731
47.31	4.74171
47.32	4.74665
47.33	4.75454
47.34	4.77264
47.35	4.78053
47.36	4.74895
47.37	4.75783
47.38	4.77428
47.39	4.79237
47.4	4.79566
47.41	4.78152
47.42	4.79501
47.43	4.80849
47.44	4.78547
47.45	4.81803
47.46	4.7927
47.47	4.77132
47.48	4.80915
47.49	4.79435
47.5	4.76639
47.51	4.78974
47.52	4.78908
47.53	4.81244
47.54	4.74731
47.55	4.78119
47.56	4.76968
47.57	4.78316
47.58	4.78316
47.59	4.77066
47.6	4.76803
47.61	4.74862
47.62	4.76573
47.63	4.77395
47.64	4.79731
47.65	4.80619
47.66	4.77132
47.67	4.7529
47.68	4.76507
47.69	4.72
47.7	4.74829
47.71	4.7631
47.72	4.79336
47.73	4.77297
47.74	4.79895
47.75	4.7756
47.76	4.75389
47.77	4.75454
47.78	4.80323
47.79	4.80389
47.8	4.76474
47.81	4.79139
47.82	4.80356
47.83	4.76968
47.84	4.79303
47.85	4.76244
47.86	4.78645
47.87	4.81343
47.88	4.77
47.89	4.78283
47.9	4.78152
47.91	4.8006
47.92	4.76145
47.93	4.75257
47.94	4.7779
47.95	4.7881
47.96	4.79698
47.97	4.76737
47.98	4.76343
47.99	4.79007
48	4.79204
48.01	4.79139
48.02	4.78908
48.03	4.8006
48.04	4.75191
48.05	4.76836
48.06	4.80224
48.07	4.79139
48.08	4.80027
48.09	4.79797
48.1	4.77527
48.11	4.79533
48.12	4.79172
48.13	4.72592
48.14	4.77494
48.15	4.76573
48.16	4.75487
48.17	4.79007
48.18	4.77724
48.19	4.82264
48.2	4.80981
48.21	4.81573
48.22	4.8131
48.23	4.80849
48.24	4.78415
48.25	4.76968
48.26	4.8302
48.27	4.79961
48.28	4.76408
48.29	4.75882
48.3	4.77593
48.31	4.78086
48.32	4.79731
48.33	4.76902
48.34	4.77132
48.35	4.78843
48.36	4.80849
48.37	4.77691
48.38	4.77165
48.39	4.81639
48.4	4.77527
48.41	4.76079
48.42	4.81211
48.43	4.81211
48.44	4.82757
48.45	4.78777
48.46	4.78218
48.47	4.81112
48.48	4.76047
48.49	4.76869
48.5	4.79402
48.51	4.75356
48.52	4.77132
48.53	4.75882
48.54	4.79698
48.55	4.79369
48.56	4.80027
48.57	4.81672
48.58	4.77362
48.59	4.76014
48.6	4.77724
48.61	4.80981
48.62	4.8233
48.63	4.80356
48.64	4.80586
48.65	4.81409
48.66	4.78744
48.67	4.78382
48.68	4.80027
48.69	4.74204
48.7	4.78316
48.71	4.78514
48.72	4.78086
48.73	4.76277
48.74	4.7529
48.75	4.77658
48.76	4.8052
48.77	4.7904
48.78	4.75257
48.79	4.79237
48.8	4.77231
48.81	4.76343
48.82	4.7529
48.83	4.76375
48.84	4.7631
48.85	4.7983
48.86	4.83284
48.87	4.79172
48.88	4.78415
48.89	4.74961
48.9	4.75783
48.91	4.80751
48.92	4.76737
48.93	4.80718
48.94	4.7904
48.95	4.72132
48.96	4.75487
48.97	4.79895
48.98	4.80751
48.99	4.79928
49	4.78415
49.01	4.79402
49.02	4.78251
49.03	4.74796
49.04	4.74106
49.05	4.76704
49.06	4.79369
49.07	4.79369
49.08	4.79731
49.09	4.79139
49.1	4.80323
49.11	4.80356
49.12	4.79764
49.13	4.79533
49.14	4.79533
49.15	4.79501
49.16	4.81474
49.17	4.77165
49.18	4.76869
49.19	4.82626
49.2	4.76573
49.21	4.7983
49.22	4.81705
49.23	4.79336
49.24	4.77823
49.25	4.73448
49.26	4.81277
49.27	4.79369
49.28	4.82626
49.29	4.77264
49.3	4.80158
49.31	4.7802
49.32	4.77264
49.33	4.75158
49.34	4.75027
49.35	4.76672
49.36	4.83218
49.37	4.81672
49.38	4.81507
49.39	4.78777
49.4	4.7802
49.41	4.7677
49.42	4.80191
49.43	4.78185
49.44	4.79632
49.45	4.79369
49.46	4.78316
49.47	4.80224
49.48	4.79237
49.49	4.78152
49.5	4.75027
49.51	4.77691
49.52	4.8381
49.53	4.81935
49.54	4.80191
49.55	4.81112
49.56	4.75849
49.57	4.77198
49.58	4.7756
49.59	4.77264
49.6	4.7427
49.61	4.80224
49.62	4.80816
49.63	4.80652
49.64	4.78579
49.65	4.8233
49.66	4.7802
49.67	4.79731
49.68	4.80257
49.69	4.79073
49.7	4.76803
49.71	4.79994
49.72	4.7983
49.73	4.7904
49.74	4.82362
49.75	4.80191
49.76	4.77231
49.77	4.79172
49.78	4.7654
49.79	4.80948
49.8	4.75586
49.81	4.75421
49.82	4.73382
49.83	4.7631
49.84	4.7506
49.85	4.74073
49.86	4.72592
49.87	4.72395
49.88	4.79764
49.89	4.77231
49.9	4.78645
49.91	4.79501
49.92	4.79501
49.93	4.78415
49.94	4.78481
49.95	4.78481
49.96	4.78448
49.97	4.77527
49.98	4.78678
49.99	4.79172
50	4.75915
