"BIO-KINE ASCII FILE"
"_COMMENT"	"MOS-500 Spectrometer"
"_COMMENT"	"Kinetics measurement"
"_COMMENT"	"Y Unit : Volt,  X Unit : s"
"_COMMENT"	"Excitation wavelength : 380 nm"
"_COMMENT"	"Fentes bandwidth =  1 nm"
"_COMMENT"	"HV= 1000V"
"_COMMENT"	"Timebase  1 =  .01 s   5001 pts"
"_SFM"	"SFM-400 /S  Advanced mode"
"_SFM"	"Ratio : S1: 2.5, S2: 0, S3: 0, S4: 1"
"_SFM"	"Content : S1: , S2: , S3: , S4:"
"_SFM"	"Concentration : S1: , S2: , S3: , S4:"
"_SFM"	"Total volume : 209 µl  Flow : 3.5 mL/s"
"_SFM"	"Acquisition start :  10 ms before stop"
"_SFM"	"cuve=FC-15, s1=10 ml , s2=10 ml , s3=10 ml , s4=1.9 ml"
"_UNITX"	"s"
"_UNITY"	"Volt"
"_DELTAX"	0
"_DATA"
1e-300	8.2576
0.01	8.43622
0.02	8.66452
0.03	8.77406
0.04	8.80959
0.05	8.87176
0.06	8.93031
0.07	8.94248
0.08	8.95597
0.09	8.95696
0.1	8.95169
0.11	8.97439
0.12	8.96452
0.13	8.98262
0.14	8.94643
0.15	9.01025
0.16	8.99841
0.17	8.96419
0.18	8.96419
0.19	8.9961
0.2	8.96551
0.21	8.96156
0.22	9.00104
0.23	8.93985
0.24	8.979
0.25	9.0313
0.26	8.94873
0.27	8.9915
0.28	9.02505
0.29	8.9461
0.3	8.94775
0.31	8.93261
0.32	8.97044
0.33	8.93064
0.34	8.92834
0.35	8.94544
0.36	8.97801
0.37	8.98656
0.38	8.9734
0.39	8.93854
0.4	8.90432
0.41	8.95696
0.42	8.88557
0.43	8.88623
0.44	8.91748
0.45	8.91715
0.46	8.91518
0.47	8.96419
0.48	8.85827
0.49	8.8961
0.5	8.92768
0.51	8.87571
0.52	8.90696
0.53	8.86057
0.54	8.88196
0.55	8.84215
0.56	8.87801
0.57	8.94347
0.58	8.87077
0.59	8.87307
0.6	8.84149
0.61	8.86288
0.62	8.88985
0.63	8.82439
0.64	8.75498
0.65	8.8711
0.66	8.81781
0.67	8.8234
0.68	8.7586
0.69	8.80498
0.7	8.74774
0.71	8.82439
0.72	8.83524
0.73	8.79182
0.74	8.78722
0.75	8.77669
0.76	8.80498
0.77	8.80465
0.78	8.79478
0.79	8.73952
0.8	8.74511
0.81	8.7813
0.82	8.78853
0.83	8.77768
0.84	8.74018
0.85	8.71616
0.86	8.78261
0.87	8.75893
0.88	8.72735
0.89	8.73228
0.9	8.77998
0.91	8.76287
0.92	8.74445
0.93	8.71682
0.94	8.73754
0.95	8.76682
0.96	8.72208
0.97	8.73787
0.98	8.68853
0.99	8.71682
1	8.70662
1.01	8.69873
1.02	8.7234
1.03	8.71715
1.04	8.69083
1.05	8.6336
1.06	8.66517
1.07	8.64873
1.08	8.66057
1.09	8.66814
1.1	8.62208
1.11	8.66057
1.12	8.65498
1.13	8.63623
1.14	8.66485
1.15	8.63162
1.16	8.64083
1.17	8.67241
1.18	8.62833
1.19	8.6382
1.2	8.65169
1.21	8.68228
1.22	8.65958
1.23	8.65037
1.24	8.57998
1.25	8.5734
1.26	8.62109
1.27	8.61254
1.28	8.61287
1.29	8.59017
1.3	8.64445
1.31	8.61517
1.32	8.57833
1.33	8.5803
1.34	8.51912
1.35	8.60695
1.36	8.57109
1.37	8.55662
1.38	8.58919
1.39	8.58919
1.4	8.59675
1.41	8.54872
1.42	8.52932
1.43	8.54313
1.44	8.55761
1.45	8.52932
1.46	8.52076
1.47	8.54938
1.48	8.54247
1.49	8.53524
1.5	8.56912
1.51	8.51221
1.52	8.57504
1.53	8.57734
1.54	8.55695
1.55	8.51879
1.56	8.51879
1.57	8.50662
1.58	8.52438
1.59	8.5632
1.6	8.5109
1.61	8.50136
1.62	8.45399
1.63	8.47405
1.64	8.4326
1.65	8.52537
1.66	8.49149
1.67	8.44708
1.68	8.5109
1.69	8.51517
1.7	8.49839
1.71	8.46517
1.72	8.43063
1.73	8.47307
1.74	8.47603
1.75	8.44806
1.76	8.41583
1.77	8.4326
1.78	8.41155
1.79	8.41945
1.8	8.42602
1.81	8.42931
1.82	8.43392
1.83	8.41517
1.84	8.47603
1.85	8.41418
1.86	8.38227
1.87	8.41912
1.88	8.43063
1.89	8.42076
1.9	8.38951
1.91	8.41122
1.92	8.38425
1.93	8.37569
1.94	8.39708
1.95	8.36188
1.96	8.37964
1.97	8.353
1.98	8.38491
1.99	8.36188
2	8.34773
2.01	8.34938
2.02	8.30694
2.03	8.38589
2.04	8.37405
2.05	8.3349
2.06	8.3882
2.07	8.36517
2.08	8.36023
2.09	8.32372
2.1	8.26846
2.11	8.38129
2.12	8.32471
2.13	8.36319
2.14	8.38655
2.15	8.34905
2.16	8.29313
2.17	8.38194
2.18	8.35004
2.19	8.30004
2.2	8.29477
2.21	8.3099
2.22	8.3076
2.23	8.278
2.24	8.30629
2.25	8.28918
2.26	8.28392
2.27	8.30629
2.28	8.24214
2.29	8.278
2.3	8.32306
2.31	8.29313
2.32	8.30332
2.33	8.28293
2.34	8.26878
2.35	8.25036
2.36	8.26122
2.37	8.28721
2.38	8.27865
2.39	8.25036
2.4	8.26418
2.41	8.27043
2.42	8.21023
2.43	8.24576
2.44	8.26352
2.45	8.28392
2.46	8.22109
2.47	8.19905
2.48	8.20957
2.49	8.23227
2.5	8.2122
2.51	8.22898
2.52	8.1622
2.53	8.14214
2.54	8.21582
2.55	8.17964
2.56	8.12635
2.57	8.20628
2.58	8.18622
2.59	8.16944
2.6	8.17174
2.61	8.18655
2.62	8.22174
2.63	8.17832
2.64	8.13983
2.65	8.12404
2.66	8.16845
2.67	8.15233
2.68	8.22668
2.69	8.14016
2.7	8.08325
2.71	8.11648
2.72	8.20859
2.73	8.20431
2.74	8.18589
2.75	8.10858
2.76	8.14937
2.77	8.15924
2.78	8.09674
2.79	8.11747
2.8	8.13589
2.81	8.0872
2.82	8.12635
2.83	8.08292
2.84	8.13326
2.85	8.17076
2.86	8.08885
2.87	8.11154
2.88	8.12931
2.89	8.09904
2.9	8.11385
2.91	8.07404
2.92	8.07042
2.93	8.08128
2.94	8.052
2.95	8.1247
2.96	8.05957
2.97	8.06746
2.98	8.07141
2.99	8.0974
3	8.05431
3.01	8.08918
3.02	8.1122
3.03	8.10036
3.04	8.08556
3.05	8.07141
3.06	8.08128
3.07	8.07832
3.08	8.02371
3.09	8.03128
3.1	8.08556
3.11	8.04115
3.12	7.97174
3.13	8.0372
3.14	8.01121
3.15	8.02733
3.16	8.01417
3.17	7.96746
3.18	8.00694
3.19	8.08095
3.2	8.06121
3.21	8.05727
3.22	8.02009
3.23	7.95825
3.24	8.02371
3.25	7.99246
3.26	7.95496
3.27	7.99246
3.28	8.01582
3.29	7.98555
3.3	7.96615
3.31	8.04115
3.32	8.05332
3.33	8.04016
3.34	7.99773
3.35	7.94575
3.36	7.95595
3.37	8.00628
3.38	7.97963
3.39	7.9668
3.4	7.92733
3.41	7.94345
3.42	7.95759
3.43	7.95825
3.44	7.98687
3.45	8.00924
3.46	8.002
3.47	7.90628
3.48	7.93292
3.49	8.002
3.5	7.92634
3.51	7.92272
3.52	7.95957
3.53	7.86516
3.54	7.91878
3.55	7.88259
3.56	7.92404
3.57	7.93391
3.58	7.91121
3.59	7.8793
3.6	7.86746
3.61	7.82173
3.62	7.88424
3.63	7.86417
3.64	7.90562
3.65	7.86516
3.66	7.80693
3.67	7.82963
3.68	7.89443
3.69	7.91878
3.7	7.88128
3.71	7.85035
3.72	7.89147
3.73	7.88687
3.74	7.86417
3.75	7.77996
3.76	7.81417
3.77	7.88456
3.78	7.8316
3.79	7.8395
3.8	7.85068
3.81	7.87766
3.82	7.88095
3.83	7.88489
3.84	7.92536
3.85	7.86746
3.86	7.81877
3.87	7.84674
3.88	7.82667
3.89	7.85364
3.9	7.80529
3.91	7.84575
3.92	7.85595
3.93	7.84213
3.94	7.76483
3.95	7.7464
3.96	7.76154
3.97	7.8247
3.98	7.86318
3.99	7.81976
4	7.80134
4.01	7.78917
4.02	7.8441
4.03	7.80792
4.04	7.81318
4.05	7.77996
4.06	7.7316
4.07	7.78094
4.08	7.81713
4.09	7.79739
4.1	7.81976
4.11	7.802
4.12	7.76515
4.13	7.75858
4.14	7.7645
4.15	7.80529
4.16	7.74377
4.17	7.78522
4.18	7.7191
4.19	7.76417
4.2	7.81384
4.21	7.78423
4.22	7.77436
4.23	7.77765
4.24	7.76022
4.25	7.73851
4.26	7.73292
4.27	7.75298
4.28	7.75101
4.29	7.78588
4.3	7.76417
4.31	7.75035
4.32	7.76088
4.33	7.76022
4.34	7.70167
4.35	7.69443
4.36	7.69213
4.37	7.72272
4.38	7.7418
4.39	7.69838
4.4	7.72107
4.41	7.71844
4.42	7.74871
4.43	7.72798
4.44	7.69311
4.45	7.72502
4.46	7.68818
4.47	7.68292
4.48	7.63522
4.49	7.65561
4.5	7.6737
4.51	7.65495
4.52	7.71351
4.53	7.65627
4.54	7.68719
4.55	7.67042
4.56	7.6487
4.57	7.62765
4.58	7.65791
4.59	7.67535
4.6	7.65726
4.61	7.66384
4.62	7.58982
4.63	7.60495
4.64	7.6237
4.65	7.64838
4.66	7.6293
4.67	7.63028
4.68	7.60726
4.69	7.61976
4.7	7.65331
4.71	7.70496
4.72	7.64805
4.73	7.64245
4.74	7.61745
4.75	7.67173
4.76	7.65232
4.77	7.65331
4.78	7.62074
4.79	7.60693
4.8	7.64048
4.81	7.63587
4.82	7.59772
4.83	7.61285
4.84	7.61482
4.85	7.62831
4.86	7.63193
4.87	7.59311
4.88	7.57107
4.89	7.59179
4.9	7.62699
4.91	7.60627
4.92	7.57535
4.93	7.57929
4.94	7.58752
4.95	7.59574
4.96	7.63291
4.97	7.62666
4.98	7.61383
4.99	7.58719
5	7.56778
5.01	7.59443
5.02	7.56219
5.03	7.55265
5.04	7.49048
5.05	7.54048
5.06	7.53028
5.07	7.51317
5.08	7.54212
5.09	7.5816
5.1	7.56285
5.11	7.53423
5.12	7.54278
5.13	7.49706
5.14	7.51679
5.15	7.52962
5.16	7.52732
5.17	7.53489
5.18	7.56548
5.19	7.55758
5.2	7.51811
5.21	7.54771
5.22	7.51844
5.23	7.53719
5.24	7.51482
5.25	7.51219
5.26	7.50331
5.27	7.54508
5.28	7.50692
5.29	7.50265
5.3	7.50725
5.31	7.49771
5.32	7.51581
5.33	7.50199
5.34	7.53357
5.35	7.47304
5.36	7.52206
5.37	7.53357
5.38	7.49344
5.39	7.45166
5.4	7.50002
5.41	7.46745
5.42	7.42896
5.43	7.47699
5.44	7.54081
5.45	7.46284
5.46	7.45363
5.47	7.47699
5.48	7.54607
5.49	7.46646
5.5	7.39179
5.51	7.45955
5.52	7.49607
5.53	7.48192
5.54	7.47205
5.55	7.43949
5.56	7.4783
5.57	7.45824
5.58	7.40922
5.59	7.43916
5.6	7.48127
5.61	7.43324
5.62	7.44179
5.63	7.44048
5.64	7.43949
5.65	7.40265
5.66	7.40561
5.67	7.34245
5.68	7.40166
5.69	7.41054
5.7	7.39508
5.71	7.37304
5.72	7.41251
5.73	7.45396
5.74	7.41844
5.75	7.41186
5.76	7.39705
5.77	7.39014
5.78	7.42271
5.79	7.44936
5.8	7.43258
5.81	7.40462
5.82	7.39804
5.83	7.40232
5.84	7.44508
5.85	7.45232
5.86	7.41087
5.87	7.43126
5.88	7.46252
5.89	7.37764
5.9	7.41876
5.91	7.42732
5.92	7.46186
5.93	7.4214
5.94	7.40955
5.95	7.40857
5.96	7.37863
5.97	7.3987
5.98	7.39409
5.99	7.3135
6	7.40495
6.01	7.38192
6.02	7.36942
6.03	7.35396
6.04	7.3612
6.05	7.36876
6.06	7.34639
6.07	7.32139
6.08	7.32929
6.09	7.39343
6.1	7.3908
6.11	7.36317
6.12	7.36251
6.13	7.28981
6.14	7.37271
6.15	7.34935
6.16	7.27764
6.17	7.28554
6.18	7.3112
6.19	7.34508
6.2	7.35692
6.21	7.34508
6.22	7.3181
6.23	7.32304
6.24	7.35231
6.25	7.35067
6.26	7.33093
6.27	7.33488
6.28	7.39903
6.29	7.31251
6.3	7.3556
6.31	7.32139
6.32	7.34212
6.33	7.4385
6.34	7.31317
6.35	7.28652
6.36	7.25955
6.37	7.26744
6.38	7.33455
6.39	7.31251
6.4	7.3033
6.41	7.37501
6.42	7.33653
6.43	7.29804
6.44	7.33488
6.45	7.31284
6.46	7.35001
6.47	7.29541
6.48	7.30856
6.49	7.33389
6.5	7.31152
6.51	7.30823
6.52	7.3181
6.53	7.29837
6.54	7.31942
6.55	7.32205
6.56	7.32501
6.57	7.34409
6.58	7.30856
6.59	7.30823
6.6	7.3135
6.61	7.28422
6.62	7.28521
6.63	7.23817
6.64	7.251
6.65	7.26646
6.66	7.226
6.67	7.26777
6.68	7.30034
6.69	7.25692
6.7	7.25889
6.71	7.28356
6.72	7.25889
6.73	7.26481
6.74	7.23455
6.75	7.21942
6.76	7.23652
6.77	7.27567
6.78	7.29343
6.79	7.29902
6.8	7.26547
6.81	7.28521
6.82	7.25165
6.83	7.26119
6.84	7.25758
6.85	7.2806
6.86	7.27073
6.87	7.27929
6.88	7.27139
6.89	7.23915
6.9	7.276
6.91	7.23817
6.92	7.19771
6.93	7.25659
6.94	7.251
6.95	7.22468
6.96	7.18915
6.97	7.19047
6.98	7.23126
6.99	7.23784
7	7.20823
7.01	7.21086
7.02	7.18422
7.03	7.23554
7.04	7.20757
7.05	7.13455
7.06	7.16251
7.07	7.22731
7.08	7.19705
7.09	7.21876
7.1	7.18488
7.11	7.16086
7.12	7.23751
7.13	7.21317
7.14	7.22073
7.15	7.21679
7.16	7.21448
7.17	7.19507
7.18	7.18389
7.19	7.18455
7.2	7.17205
7.21	7.23389
7.22	7.20264
7.23	7.21382
7.24	7.2204
7.25	7.22073
7.26	7.19113
7.27	7.2079
7.28	7.1579
7.29	7.18751
7.3	7.2408
7.31	7.19211
7.32	7.16678
7.33	7.22468
7.34	7.16711
7.35	7.14606
7.36	7.18915
7.37	7.17172
7.38	7.17896
7.39	7.20593
7.4	7.20692
7.41	7.16974
7.42	7.16514
7.43	7.13652
7.44	7.15395
7.45	7.18817
7.46	7.15099
7.47	7.13126
7.48	7.23619
7.49	7.19935
7.5	7.17238
7.51	7.1908
7.52	7.12797
7.53	7.13948
7.54	7.11711
7.55	7.17863
7.56	7.18882
7.57	7.17994
7.58	7.17764
7.59	7.16744
7.6	7.15889
7.61	7.17238
7.62	7.14902
7.63	7.17764
7.64	7.17632
7.65	7.15659
7.66	7.1908
7.67	7.1602
7.68	7.12303
7.69	7.12895
7.7	7.11251
7.71	7.14639
7.72	7.11448
7.73	7.14047
7.74	7.19047
7.75	7.13619
7.76	7.14113
7.77	7.10823
7.78	7.17139
7.79	7.1352
7.8	7.12994
7.81	7.10987
7.82	7.12665
7.83	7.12797
7.84	7.12237
7.85	7.08849
7.86	7.0954
7.87	7.16152
7.88	7.11909
7.89	7.13553
7.9	7.13685
7.91	7.11218
7.92	7.10165
7.93	7.08126
7.94	7.10264
7.95	7.06119
7.96	7.08751
7.97	7.08849
7.98	7.06415
7.99	7.10001
8	7.05757
8.01	7.06547
8.02	7.08191
8.03	6.9852
8.04	7.06382
8.05	7.12336
8.06	7.05362
8.07	7.04277
8.08	7.04079
8.09	7.05823
8.1	7.09047
8.11	7.10165
8.12	7.06612
8.13	7.0477
8.14	7.0727
8.15	7.08422
8.16	7.08948
8.17	7.12172
8.18	7.08224
8.19	7.09869
8.2	7.14705
8.21	7.0727
8.22	7.07533
8.23	7.09672
8.24	7.06316
8.25	7.05593
8.26	7.05856
8.27	7.04902
8.28	7.07172
8.29	7.0704
8.3	7.04704
8.31	7.02698
8.32	7.0477
8.33	7.06843
8.34	7.0306
8.35	7.01514
8.36	7.07435
8.37	7.04474
8.38	7.02895
8.39	7.05165
8.4	7.05658
8.41	7.03389
8.42	7.00395
8.43	7.05033
8.44	7.02665
8.45	7.07007
8.46	7.06448
8.47	7.01744
8.48	6.98981
8.49	7.0352
8.5	7.00823
8.51	7.02698
8.52	7.02073
8.53	7.0125
8.54	6.99902
8.55	7.01152
8.56	7.00132
8.57	7.03454
8.58	7.04507
8.59	7.02007
8.6	7.0306
8.61	7.04935
8.62	7.0125
8.63	6.9523
8.64	6.98356
8.65	7.04112
8.66	7.01744
8.67	7.01316
8.68	7.0477
8.69	7.02402
8.7	7.03816
8.71	7.04441
8.72	6.99408
8.73	6.98224
8.74	6.97073
8.75	6.97303
8.76	7.00066
8.77	7.025
8.78	6.99967
8.79	6.96744
8.8	6.96711
8.81	6.99638
8.82	6.99902
8.83	7.00198
8.84	6.96809
8.85	7.01875
8.86	7.01579
8.87	6.99178
8.88	7.02961
8.89	6.99474
8.9	6.99277
8.91	6.9931
8.92	7.01514
8.93	6.99507
8.94	6.99079
8.95	7.02698
8.96	7.0102
8.97	6.9477
8.98	6.96053
8.99	7.04112
9	6.97007
9.01	6.95954
9.02	6.97928
9.03	6.97829
9.04	6.9398
9.05	7.01711
9.06	6.97073
9.07	6.93783
9.08	6.96349
9.09	7.00889
9.1	7.02533
9.11	6.99342
9.12	6.97237
9.13	6.94013
9.14	6.99013
9.15	6.96349
9.16	6.95198
9.17	6.93717
9.18	6.97928
9.19	6.99013
9.2	6.93026
9.21	6.9648
9.22	6.98948
9.23	7.00592
9.24	6.9125
9.25	6.91283
9.26	6.94211
9.27	6.96119
9.28	6.94441
9.29	6.91842
9.3	6.89507
9.31	6.89605
9.32	6.91119
9.33	6.95132
9.34	6.94803
9.35	6.92303
9.36	6.91382
9.37	6.9204
9.38	6.91513
9.39	6.91151
9.4	6.92697
9.41	6.92369
9.42	6.92829
9.43	6.89243
9.44	6.96448
9.45	6.9454
9.46	6.91184
9.47	6.91217
9.48	6.86513
9.49	6.98421
9.5	6.97862
9.51	6.92105
9.52	6.86908
9.53	6.925
9.54	6.92994
9.55	6.93257
9.56	6.95494
9.57	6.90855
9.58	6.94441
9.59	6.9102
9.6	6.93915
9.61	6.95494
9.62	6.89112
9.63	6.95559
9.64	6.92796
9.65	6.95033
9.66	6.89836
9.67	6.89243
9.68	6.92665
9.69	6.95757
9.7	6.93553
9.71	6.95855
9.72	6.90822
9.73	6.91546
9.74	6.94638
9.75	6.91349
9.76	6.89441
9.77	6.89836
9.78	6.97862
9.79	6.92105
9.8	6.87039
9.81	6.90099
9.82	6.95987
9.83	6.93849
9.84	6.8977
9.85	6.89112
9.86	6.78322
9.87	6.85033
9.88	6.89836
9.89	6.87664
9.9	6.88026
9.91	6.89572
9.92	6.89934
9.93	6.89046
9.94	6.86217
9.95	6.85855
9.96	6.8648
9.97	6.86612
9.98	6.94013
9.99	6.87105
10	6.85724
10.01	6.87862
10.02	6.86645
10.03	6.86414
10.04	6.88586
10.05	6.93717
10.06	6.85526
10.07	6.8852
10.08	6.89704
10.09	6.89474
10.1	6.89507
10.11	6.83059
10.12	6.89079
10.13	6.84342
10.14	6.89868
10.15	6.91744
10.16	6.89342
10.17	6.81283
10.18	6.76842
10.19	6.86809
10.2	6.86283
10.21	6.86546
10.22	6.83849
10.23	6.83191
10.24	6.82533
10.25	6.88487
10.26	6.86743
10.27	6.85099
10.28	6.83618
10.29	6.84671
10.3	6.83717
10.31	6.85757
10.32	6.86053
10.33	6.81085
10.34	6.82434
10.35	6.79802
10.36	6.85099
10.37	6.83684
10.38	6.82599
10.39	6.81513
10.4	6.82302
10.41	6.79901
10.42	6.83684
10.43	6.84868
10.44	6.85066
10.45	6.78881
10.46	6.85066
10.47	6.83158
10.48	6.81447
10.49	6.82763
10.5	6.80197
10.51	6.79342
10.52	6.79408
10.53	6.8171
10.54	6.85033
10.55	6.83881
10.56	6.85263
10.57	6.85559
10.58	6.83388
10.59	6.84835
10.6	6.8523
10.61	6.84835
10.62	6.82072
10.63	6.83816
10.64	6.84605
10.65	6.85592
10.66	6.84145
10.67	6.80131
10.68	6.8102
10.69	6.79802
10.7	6.81974
10.71	6.80164
10.72	6.81513
10.73	6.86645
10.74	6.86283
10.75	6.8102
10.76	6.84737
10.77	6.83125
10.78	6.79967
10.79	6.81875
10.8	6.84572
10.81	6.83585
10.82	6.81513
10.83	6.80164
10.84	6.83487
10.85	6.82006
10.86	6.79638
10.87	6.77401
10.88	6.80822
10.89	6.82631
10.9	6.87171
10.91	6.81283
10.92	6.77171
10.93	6.75888
10.94	6.79967
10.95	6.78947
10.96	6.80592
10.97	6.79342
10.98	6.82664
10.99	6.79309
11	6.77138
11.01	6.77862
11.02	6.79671
11.03	6.7796
11.04	6.81809
11.05	6.82664
11.06	6.79539
11.07	6.82631
11.08	6.75789
11.09	6.77862
11.1	6.75559
11.11	6.71809
11.12	6.8
11.13	6.76809
11.14	6.7977
11.15	6.80921
11.16	6.83651
11.17	6.77763
11.18	6.81085
11.19	6.77697
11.2	6.76217
11.21	6.75394
11.22	6.77237
11.23	6.8296
11.24	6.78388
11.25	6.75855
11.26	6.775
11.27	6.81085
11.28	6.7977
11.29	6.81974
11.3	6.79868
11.31	6.82204
11.32	6.77302
11.33	6.74967
11.34	6.76085
11.35	6.80592
11.36	6.7569
11.37	6.77368
11.38	6.80526
11.39	6.76579
11.4	6.7625
11.41	6.78125
11.42	6.75427
11.43	6.7171
11.44	6.77302
11.45	6.80164
11.46	6.77039
11.47	6.73552
11.48	6.73486
11.49	6.78026
11.5	6.80131
11.51	6.77598
11.52	6.79967
11.53	6.80362
11.54	6.7046
11.55	6.7398
11.56	6.75197
11.57	6.79539
11.58	6.78059
11.59	6.78223
11.6	6.75723
11.61	6.79243
11.62	6.73355
11.63	6.76743
11.64	6.76908
11.65	6.74736
11.66	6.80427
11.67	6.78783
11.68	6.75625
11.69	6.75987
11.7	6.74177
11.71	6.74736
11.72	6.74769
11.73	6.79079
11.74	6.80921
11.75	6.80855
11.76	6.80164
11.77	6.75855
11.78	6.72039
11.79	6.75954
11.8	6.75362
11.81	6.74375
11.82	6.78487
11.83	6.75888
11.84	6.70328
11.85	6.72335
11.86	6.76809
11.87	6.76546
11.88	6.76118
11.89	6.76579
11.9	6.74111
11.91	6.73684
11.92	6.72368
11.93	6.71644
11.94	6.77368
11.95	6.73059
11.96	6.73026
11.97	6.73026
11.98	6.75592
11.99	6.76908
12	6.76875
12.01	6.76842
12.02	6.74901
12.03	6.73388
12.04	6.76118
12.05	6.78848
12.06	6.77697
12.07	6.71513
12.08	6.69802
12.09	6.77204
12.1	6.74769
12.11	6.75526
12.12	6.76875
12.13	6.68651
12.14	6.74638
12.15	6.71677
12.16	6.71644
12.17	6.73651
12.18	6.79539
12.19	6.74671
12.2	6.7398
12.21	6.74013
12.22	6.69802
12.23	6.70822
12.24	6.77862
12.25	6.75658
12.26	6.70296
12.27	6.74408
12.28	6.70032
12.29	6.74111
12.3	6.78421
12.31	6.73421
12.32	6.72664
12.33	6.69802
12.34	6.72335
12.35	6.76546
12.36	6.80691
12.37	6.77434
12.38	6.67631
12.39	6.70296
12.4	6.69835
12.41	6.6773
12.42	6.71184
12.43	6.7319
12.44	6.75625
12.45	6.71085
12.46	6.69243
12.47	6.7046
12.48	6.66381
12.49	6.66282
12.5	6.6898
12.51	6.68815
12.52	6.68749
12.53	6.69671
12.54	6.69901
12.55	6.69736
12.56	6.68157
12.57	6.70986
12.58	6.7046
12.59	6.69934
12.6	6.66907
12.61	6.69769
12.62	6.7023
12.63	6.66644
12.64	6.71348
12.65	6.7194
12.66	6.68223
12.67	6.73322
12.68	6.70263
12.69	6.7194
12.7	6.72105
12.71	6.64802
12.72	6.66644
12.73	6.71282
12.74	6.74276
12.75	6.69177
12.76	6.68749
12.77	6.65888
12.78	6.67894
12.79	6.67861
12.8	6.6773
12.81	6.71907
12.82	6.69835
12.83	6.66809
12.84	6.70953
12.85	6.67302
12.86	6.66677
12.87	6.65065
12.88	6.70756
12.89	6.69703
12.9	6.68486
12.91	6.67763
12.92	6.65756
12.93	6.68848
12.94	6.67763
12.95	6.71052
12.96	6.68848
12.97	6.68157
12.98	6.70296
12.99	6.67927
13	6.68059
13.01	6.64013
13.02	6.74243
13.03	6.70888
13.04	6.6444
13.05	6.68289
13.06	6.7125
13.07	6.68421
13.08	6.71644
13.09	6.6398
13.1	6.7023
13.11	6.7444
13.12	6.63387
13.13	6.66118
13.14	6.73125
13.15	6.70197
13.16	6.67894
13.17	6.67138
13.18	6.71809
13.19	6.7148
13.2	6.66052
13.21	6.65986
13.22	6.70032
13.23	6.63322
13.24	6.62105
13.25	6.69144
13.26	6.70921
13.27	6.7069
13.28	6.71217
13.29	6.70493
13.3	6.67828
13.31	6.66644
13.32	6.70526
13.33	6.71546
13.34	6.71282
13.35	6.69835
13.36	6.68618
13.37	6.61348
13.38	6.65986
13.39	6.63585
13.4	6.63815
13.41	6.6569
13.42	6.68355
13.43	6.6819
13.44	6.69078
13.45	6.68355
13.46	6.70032
13.47	6.59901
13.48	6.61677
13.49	6.69703
13.5	6.66184
13.51	6.63716
13.52	6.65098
13.53	6.7023
13.54	6.67697
13.55	6.69177
13.56	6.71875
13.57	6.67335
13.58	6.68486
13.59	6.67894
13.6	6.67236
13.61	6.66809
13.62	6.68651
13.63	6.66381
13.64	6.6342
13.65	6.61809
13.66	6.71842
13.67	6.74079
13.68	6.66611
13.69	6.67631
13.7	6.64078
13.71	6.6273
13.72	6.65394
13.73	6.65953
13.74	6.6592
13.75	6.61019
13.76	6.67894
13.77	6.69934
13.78	6.62203
13.79	6.61315
13.8	6.6421
13.81	6.70328
13.82	6.71118
13.83	6.64177
13.84	6.64473
13.85	6.71315
13.86	6.64309
13.87	6.63256
13.88	6.62762
13.89	6.63091
13.9	6.68124
13.91	6.66019
13.92	6.62105
13.93	6.67401
13.94	6.68848
13.95	6.67828
13.96	6.64901
13.97	6.6342
13.98	6.64703
13.99	6.64835
14	6.62861
14.01	6.6421
14.02	6.62039
14.03	6.58881
14.04	6.63256
14.05	6.65888
14.06	6.60065
14.07	6.62631
14.08	6.63914
14.09	6.62401
14.1	6.63947
14.11	6.67269
14.12	6.64013
14.13	6.64144
14.14	6.66282
14.15	6.65822
14.16	6.67269
14.17	6.65493
14.18	6.60953
14.19	6.6092
14.2	6.58815
14.21	6.5819
14.22	6.67828
14.23	6.64901
14.24	6.65624
14.25	6.64309
14.26	6.60558
14.27	6.58979
14.28	6.65756
14.29	6.64243
14.3	6.62664
14.31	6.64802
14.32	6.66085
14.33	6.66348
14.34	6.60558
14.35	6.6398
14.36	6.67039
14.37	6.64835
14.38	6.66118
14.39	6.66019
14.4	6.6671
14.41	6.64769
14.42	6.61381
14.43	6.60328
14.44	6.6342
14.45	6.64078
14.46	6.63157
14.47	6.60394
14.48	6.61841
14.49	6.61578
14.5	6.63684
14.51	6.62631
14.52	6.61052
14.53	6.63716
14.54	6.62598
14.55	6.57993
14.56	6.61809
14.57	6.60723
14.58	6.59374
14.59	6.57697
14.6	6.61151
14.61	6.54933
14.62	6.6069
14.63	6.57499
14.64	6.60558
14.65	6.56545
14.66	6.58091
14.67	6.59144
14.68	6.61282
14.69	6.65263
14.7	6.63453
14.71	6.60262
14.72	6.60394
14.73	6.63716
14.74	6.61973
14.75	6.61249
14.76	6.60591
14.77	6.63519
14.78	6.63322
14.79	6.61249
14.8	6.62664
14.81	6.6523
14.82	6.61019
14.83	6.61677
14.84	6.57993
14.85	6.60262
14.86	6.60953
14.87	6.59966
14.88	6.58683
14.89	6.59078
14.9	6.66776
14.91	6.64999
14.92	6.64769
14.93	6.64276
14.94	6.63026
14.95	6.57762
14.96	6.63453
14.97	6.6273
14.98	6.65328
14.99	6.62861
15	6.61183
15.01	6.62269
15.02	6.59308
15.03	6.60427
15.04	6.56282
15.05	6.53716
15.06	6.6217
15.07	6.61611
15.08	6.5921
15.09	6.57631
15.1	6.55854
15.11	6.6092
15.12	6.58979
15.13	6.61052
15.14	6.57466
15.15	6.61315
15.16	6.55032
15.17	6.62105
15.18	6.59999
15.19	6.58354
15.2	6.55098
15.21	6.53815
15.22	6.59473
15.23	6.58585
15.24	6.62072
15.25	6.55723
15.26	6.58256
15.27	6.61414
15.28	6.56775
15.29	6.58651
15.3	6.61315
15.31	6.58552
15.32	6.56874
15.33	6.59045
15.34	6.59407
15.35	6.60558
15.36	6.6592
15.37	6.62006
15.38	6.63124
15.39	6.57236
15.4	6.61381
15.41	6.59769
15.42	6.59012
15.43	6.59473
15.44	6.59341
15.45	6.56348
15.46	6.57433
15.47	6.55164
15.48	6.53946
15.49	6.60065
15.5	6.57335
15.51	6.50788
15.52	6.59045
15.53	6.54966
15.54	6.53617
15.55	6.54835
15.56	6.56545
15.57	6.5796
15.58	6.57697
15.59	6.57072
15.6	6.56874
15.61	6.55558
15.62	6.5467
15.63	6.55657
15.64	6.57006
15.65	6.57565
15.66	6.59144
15.67	6.53058
15.68	6.56052
15.69	6.57137
15.7	6.58716
15.71	6.55822
15.72	6.57927
15.73	6.59045
15.74	6.61578
15.75	6.54473
15.76	6.55756
15.77	6.52894
15.78	6.58026
15.79	6.61118
15.8	6.59473
15.81	6.61249
15.82	6.56743
15.83	6.53617
15.84	6.55558
15.85	6.61512
15.86	6.61907
15.87	6.58881
15.88	6.57466
15.89	6.55887
15.9	6.55131
15.91	6.56447
15.92	6.57729
15.93	6.56447
15.94	6.62335
15.95	6.65164
15.96	6.57993
15.97	6.60361
15.98	6.57104
15.99	6.47532
16	6.52302
16.01	6.5296
16.02	6.54736
16.03	6.54177
16.04	6.55789
16.05	6.57499
16.06	6.57499
16.07	6.58322
16.08	6.54769
16.09	6.51874
16.1	6.56052
16.11	6.54275
16.12	6.56874
16.13	6.55131
16.14	6.54769
16.15	6.5319
16.16	6.54473
16.17	6.54045
16.18	6.5615
16.19	6.57072
16.2	6.58058
16.21	6.55427
16.22	6.56775
16.23	6.56841
16.24	6.60032
16.25	6.61085
16.26	6.57598
16.27	6.59045
16.28	6.52203
16.29	6.59045
16.3	6.6046
16.31	6.56216
16.32	6.55164
16.33	6.56743
16.34	6.59308
16.35	6.52006
16.36	6.52302
16.37	6.56085
16.38	6.57729
16.39	6.60328
16.4	6.57269
16.41	6.54966
16.42	6.59111
16.43	6.5796
16.44	6.56907
16.45	6.58815
16.46	6.58256
16.47	6.54374
16.48	6.54539
16.49	6.49637
16.5	6.56841
16.51	6.54374
16.52	6.55887
16.53	6.52367
16.54	6.51315
16.55	6.56644
16.56	6.56644
16.57	6.55427
16.58	6.51677
16.59	6.58881
16.6	6.60624
16.61	6.59506
16.62	6.60493
16.63	6.61118
16.64	6.5615
16.65	6.57664
16.66	6.58486
16.67	6.58881
16.68	6.54506
16.69	6.58387
16.7	6.60591
16.71	6.62039
16.72	6.56249
16.73	6.57433
16.74	6.55789
16.75	6.55065
16.76	6.59999
16.77	6.57269
16.78	6.56019
16.79	6.58289
16.8	6.5592
16.81	6.54473
16.82	6.55887
16.83	6.52104
16.84	6.53749
16.85	6.54933
16.86	6.5467
16.87	6.54637
16.88	6.56019
16.89	6.55854
16.9	6.5319
16.91	6.53815
16.92	6.57269
16.93	6.56611
16.94	6.56545
16.95	6.54012
16.96	6.56775
16.97	6.59308
16.98	6.52861
16.99	6.59407
17	6.58223
17.01	6.52104
17.02	6.55065
17.03	6.53124
17.04	6.49012
17.05	6.53914
17.06	6.58848
17.07	6.49933
17.08	6.48058
17.09	6.54078
17.1	6.56644
17.11	6.56282
17.12	6.59045
17.13	6.5671
17.14	6.53256
17.15	6.56973
17.16	6.48354
17.17	6.53585
17.18	6.49209
17.19	6.49769
17.2	6.53585
17.21	6.5546
17.22	6.45328
17.23	6.49506
17.24	6.53979
17.25	6.5694
17.26	6.56907
17.27	6.55723
17.28	6.60756
17.29	6.56743
17.3	6.53716
17.31	6.49473
17.32	6.53289
17.33	6.52039
17.34	6.55295
17.35	6.53946
17.36	6.54078
17.37	6.5194
17.38	6.54506
17.39	6.55229
17.4	6.54473
17.41	6.53354
17.42	6.55525
17.43	6.54933
17.44	6.54243
17.45	6.56381
17.46	6.59736
17.47	6.55558
17.48	6.59045
17.49	6.54769
17.5	6.53946
17.51	6.55822
17.52	6.52565
17.53	6.55986
17.54	6.58124
17.55	6.54243
17.56	6.48486
17.57	6.52071
17.58	6.53815
17.59	6.55624
17.6	6.58289
17.61	6.54933
17.62	6.56118
17.63	6.58354
17.64	6.57664
17.65	6.61841
17.66	6.55558
17.67	6.50098
17.68	6.50821
17.69	6.52696
17.7	6.51446
17.71	6.51874
17.72	6.53848
17.73	6.55525
17.74	6.51249
17.75	6.5092
17.76	6.50394
17.77	6.50558
17.78	6.50558
17.79	6.52927
17.8	6.48025
17.81	6.53815
17.82	6.50887
17.83	6.49308
17.84	6.54177
17.85	6.5717
17.86	6.52335
17.87	6.53815
17.88	6.52762
17.89	6.4944
17.9	6.54012
17.91	6.51446
17.92	6.5217
17.93	6.50295
17.94	6.499
17.95	6.52137
17.96	6.52828
17.97	6.549
17.98	6.54111
17.99	6.51578
18	6.51808
18.01	6.50394
18.02	6.47762
18.03	6.51413
18.04	6.52565
18.05	6.54111
18.06	6.48946
18.07	6.55196
18.08	6.52828
18.09	6.5171
18.1	6.52236
18.11	6.54407
18.12	6.53716
18.13	6.59407
18.14	6.51775
18.15	6.53453
18.16	6.47959
18.17	6.5319
18.18	6.549
18.19	6.49506
18.2	6.52795
18.21	6.55986
18.22	6.51907
18.23	6.49308
18.24	6.4819
18.25	6.54703
18.26	6.4694
18.27	6.49637
18.28	6.52039
18.29	6.48749
18.3	6.46808
18.31	6.49933
18.32	6.55558
18.33	6.52927
18.34	6.49966
18.35	6.53025
18.36	6.51578
18.37	6.51808
18.38	6.50821
18.39	6.52236
18.4	6.4865
18.41	6.4615
18.42	6.46183
18.43	6.51742
18.44	6.4819
18.45	6.53354
18.46	6.56512
18.47	6.5569
18.48	6.549
18.49	6.52367
18.5	6.50098
18.51	6.45854
18.52	6.49604
18.53	6.48486
18.54	6.48946
18.55	6.51249
18.56	6.50986
18.57	6.51052
18.58	6.53058
18.59	6.50821
18.6	6.56052
18.61	6.52828
18.62	6.51545
18.63	6.50098
18.64	6.50032
18.65	6.51742
18.66	6.52762
18.67	6.51348
18.68	6.47137
18.69	6.54111
18.7	6.56545
18.71	6.52433
18.72	6.52499
18.73	6.54539
18.74	6.4763
18.75	6.50131
18.76	6.46874
18.77	6.5115
18.78	6.49571
18.79	6.53124
18.8	6.50887
18.81	6.47236
18.82	6.52565
18.83	6.51413
18.84	6.50394
18.85	6.49144
18.86	6.44703
18.87	6.49242
18.88	6.51019
18.89	6.49177
18.9	6.53519
18.91	6.50394
18.92	6.52861
18.93	6.54078
18.94	6.49966
18.95	6.53979
18.96	6.54604
18.97	6.49736
18.98	6.47302
18.99	6.47433
19	6.52071
19.01	6.524
19.02	6.47861
19.03	6.51446
19.04	6.54703
19.05	6.49834
19.06	6.49834
19.07	6.52499
19.08	6.51348
19.09	6.55591
19.1	6.52104
19.11	6.53486
19.12	6.50361
19.13	6.5217
19.14	6.52795
19.15	6.5194
19.16	6.51841
19.17	6.50624
19.18	6.51085
19.19	6.51578
19.2	6.49637
19.21	6.50262
19.22	6.43815
19.23	6.4592
19.24	6.46183
19.25	6.47532
19.26	6.45295
19.27	6.47236
19.28	6.50854
19.29	6.47038
19.3	6.45459
19.31	6.48519
19.32	6.50821
19.33	6.52894
19.34	6.50262
19.35	6.51282
19.36	6.49637
19.37	6.48091
19.38	6.55196
19.39	6.49407
19.4	6.49407
19.41	6.51742
19.42	6.58453
19.43	6.54966
19.44	6.52006
19.45	6.50196
19.46	6.52762
19.47	6.52927
19.48	6.51578
19.49	6.50098
19.5	6.50723
19.51	6.47499
19.52	6.46479
19.53	6.5217
19.54	6.53519
19.55	6.50492
19.56	6.49637
19.57	6.47598
19.58	6.4467
19.59	6.50262
19.6	6.49604
19.61	6.48716
19.62	6.50098
19.63	6.45558
19.64	6.4569
19.65	6.45361
19.66	6.46611
19.67	6.5194
19.68	6.46841
19.69	6.4763
19.7	6.46183
19.71	6.4865
19.72	6.53256
19.73	6.48519
19.74	6.4513
19.75	6.51315
19.76	6.49144
19.77	6.52861
19.78	6.52071
19.79	6.46512
19.8	6.48617
19.81	6.49802
19.82	6.4865
19.83	6.49966
19.84	6.48716
19.85	6.54078
19.86	6.49867
19.87	6.48486
19.88	6.43913
19.89	6.47466
19.9	6.47894
19.91	6.48124
19.92	6.51052
19.93	6.50492
19.94	6.49834
19.95	6.49966
19.96	6.47334
19.97	6.51183
19.98	6.45788
19.99	6.45558
20	6.46249
20.01	6.52335
20.02	6.51973
20.03	6.49144
20.04	6.47663
20.05	6.46709
20.06	6.48946
20.07	6.499
20.08	6.49341
20.09	6.49012
20.1	6.46578
20.11	6.51644
20.12	6.50558
20.13	6.51315
20.14	6.49209
20.15	6.54506
20.16	6.44176
20.17	6.42532
20.18	6.45361
20.19	6.49473
20.2	6.44045
20.21	6.4638
20.22	6.49867
20.23	6.50032
20.24	6.47334
20.25	6.43584
20.26	6.45065
20.27	6.47565
20.28	6.49834
20.29	6.51512
20.3	6.4615
20.31	6.47137
20.32	6.45065
20.33	6.449
20.34	6.5319
20.35	6.50821
20.36	6.50788
20.37	6.51117
20.38	6.4615
20.39	6.49045
20.4	6.44012
20.41	6.47269
20.42	6.51907
20.43	6.48256
20.44	6.45624
20.45	6.44637
20.46	6.48157
20.47	6.48091
20.48	6.44407
20.49	6.48584
20.5	6.45295
20.51	6.45558
20.52	6.4694
20.53	6.46019
20.54	6.49144
20.55	6.44473
20.56	6.50361
20.57	6.524
20.58	6.52828
20.59	6.49308
20.6	6.51611
20.61	6.48584
20.62	6.47038
20.63	6.43354
20.64	6.44209
20.65	6.50262
20.66	6.46808
20.67	6.47795
20.68	6.47005
20.69	6.45295
20.7	6.49538
20.71	6.51413
20.72	6.5069
20.73	6.44966
20.74	6.46413
20.75	6.50328
20.76	6.47894
20.77	6.45492
20.78	6.44374
20.79	6.46973
20.8	6.47696
20.81	6.48584
20.82	6.51348
20.83	6.46348
20.84	6.46117
20.85	6.47795
20.86	6.51183
20.87	6.44209
20.88	6.49374
20.89	6.50098
20.9	6.48486
20.91	6.4763
20.92	6.46413
20.93	6.4717
20.94	6.53617
20.95	6.47729
20.96	6.47433
20.97	6.51117
20.98	6.54111
20.99	6.47236
21	6.45887
21.01	6.43782
21.02	6.42466
21.03	6.46611
21.04	6.49999
21.05	6.47861
21.06	6.53585
21.07	6.48848
21.08	6.49407
21.09	6.51578
21.1	6.47466
21.11	6.48058
21.12	6.44242
21.13	6.47071
21.14	6.45426
21.15	6.50328
21.16	6.50854
21.17	6.50361
21.18	6.51677
21.19	6.50887
21.2	6.48881
21.21	6.49538
21.22	6.48157
21.23	6.46841
21.24	6.48288
21.25	6.45163
21.26	6.47894
21.27	6.4842
21.28	6.48354
21.29	6.49341
21.3	6.449
21.31	6.49933
21.32	6.45295
21.33	6.47203
21.34	6.49506
21.35	6.4444
21.36	6.46545
21.37	6.46413
21.38	6.50295
21.39	6.45953
21.4	6.47959
21.41	6.42038
21.42	6.44505
21.43	6.49045
21.44	6.4513
21.45	6.44769
21.46	6.46545
21.47	6.46479
21.48	6.46315
21.49	6.46907
21.5	6.47598
21.51	6.46545
21.52	6.45723
21.53	6.46315
21.54	6.52071
21.55	6.44999
21.56	6.45854
21.57	6.44801
21.58	6.47302
21.59	6.43157
21.6	6.38847
21.61	6.42038
21.62	6.48519
21.63	6.44473
21.64	6.49473
21.65	6.48913
21.66	6.4569
21.67	6.48552
21.68	6.41545
21.69	6.41808
21.7	6.46874
21.71	6.41643
21.72	6.4569
21.73	6.47236
21.74	6.46578
21.75	6.474
21.76	6.47005
21.77	6.47269
21.78	6.42137
21.79	6.47104
21.8	6.45986
21.81	6.49177
21.82	6.4217
21.83	6.48486
21.84	6.45953
21.85	6.42762
21.86	6.46644
21.87	6.47038
21.88	6.46611
21.89	6.47992
21.9	6.44341
21.91	6.50394
21.92	6.44275
21.93	6.4717
21.94	6.4513
21.95	6.43453
21.96	6.46051
21.97	6.42828
21.98	6.45032
21.99	6.46874
22	6.48124
22.01	6.42795
22.02	6.41249
22.03	6.45788
22.04	6.44801
22.05	6.4865
22.06	6.43815
22.07	6.46808
22.08	6.47828
22.09	6.43683
22.1	6.4365
22.11	6.47334
22.12	6.43157
22.13	6.45755
22.14	6.48124
22.15	6.49538
22.16	6.44769
22.17	6.46677
22.18	6.46249
22.19	6.44341
22.2	6.4638
22.21	6.46973
22.22	6.46446
22.23	6.43486
22.24	6.4467
22.25	6.46216
22.26	6.42005
22.27	6.46315
22.28	6.46578
22.29	6.53025
22.3	6.49604
22.31	6.49769
22.32	6.46545
22.33	6.48683
22.34	6.49308
22.35	6.4717
22.36	6.45032
22.37	6.43486
22.38	6.43815
22.39	6.4694
22.4	6.43847
22.41	6.44604
22.42	6.42696
22.43	6.43025
22.44	6.46973
22.45	6.49374
22.46	6.48913
22.47	6.42137
22.48	6.45394
22.49	6.44769
22.5	6.43683
22.51	6.4194
22.52	6.4217
22.53	6.44341
22.54	6.45361
22.55	6.43716
22.56	6.43387
22.57	6.43354
22.58	6.45196
22.59	6.44341
22.6	6.46578
22.61	6.49242
22.62	6.40953
22.63	6.42663
22.64	6.42959
22.65	6.47828
22.66	6.49242
22.67	6.48913
22.68	6.45295
22.69	6.40097
22.7	6.44604
22.71	6.43157
22.72	6.43091
22.73	6.50131
22.74	6.47795
22.75	6.48617
22.76	6.47663
22.77	6.47005
22.78	6.44966
22.79	6.44374
22.8	6.41841
22.81	6.44604
22.82	6.41841
22.83	6.40459
22.84	6.43683
22.85	6.39374
22.86	6.3842
22.87	6.47038
22.88	6.39703
22.89	6.40064
22.9	6.43354
22.91	6.46084
22.92	6.45492
22.93	6.42137
22.94	6.46446
22.95	6.4467
22.96	6.43222
22.97	6.43025
22.98	6.44867
22.99	6.42696
23	6.45163
23.01	6.46315
23.02	6.44078
23.03	6.40657
23.04	6.43551
23.05	6.45624
23.06	6.46117
23.07	6.47236
23.08	6.47269
23.09	6.45163
23.1	6.46874
23.11	6.44933
23.12	6.4592
23.13	6.44933
23.14	6.43683
23.15	6.50953
23.16	6.43815
23.17	6.42301
23.18	6.45887
23.19	6.47959
23.2	6.48058
23.21	6.45788
23.22	6.40887
23.23	6.40295
23.24	6.53683
23.25	6.47236
23.26	6.4694
23.27	6.4365
23.28	6.44933
23.29	6.43683
23.3	6.46413
23.31	6.44966
23.32	6.46709
23.33	6.47499
23.34	6.43091
23.35	6.42795
23.36	6.46315
23.37	6.48584
23.38	6.44308
23.39	6.4467
23.4	6.52433
23.41	6.42466
23.42	6.44012
23.43	6.46413
23.44	6.46907
23.45	6.47861
23.46	6.49867
23.47	6.50986
23.48	6.45492
23.49	6.42532
23.5	6.42894
23.51	6.44111
23.52	6.41347
23.53	6.46249
23.54	6.48749
23.55	6.47894
23.56	6.41742
23.57	6.42532
23.58	6.39571
23.59	6.45394
23.6	6.449
23.61	6.47532
23.62	6.43058
23.63	6.43617
23.64	6.40986
23.65	6.43387
23.66	6.50361
23.67	6.44637
23.68	6.47696
23.69	6.42236
23.7	6.38485
23.71	6.40591
23.72	6.47005
23.73	6.45361
23.74	6.43091
23.75	6.41611
23.76	6.4217
23.77	6.41643
23.78	6.42137
23.79	6.45953
23.8	6.46479
23.81	6.46479
23.82	6.44801
23.83	6.48288
23.84	6.42268
23.85	6.45163
23.86	6.4638
23.87	6.41972
23.88	6.41347
23.89	6.46742
23.9	6.48881
23.91	6.44374
23.92	6.42828
23.93	6.46841
23.94	6.40196
23.95	6.47861
23.96	6.49045
23.97	6.44736
23.98	6.45262
23.99	6.38453
24	6.41018
24.01	6.44176
24.02	6.40426
24.03	6.4513
24.04	6.47269
24.05	6.49407
24.06	6.4865
24.07	6.42038
24.08	6.37696
24.09	6.44275
24.1	6.44209
24.11	6.39242
24.12	6.42696
24.13	6.45723
24.14	6.46282
24.15	6.47499
24.16	6.47334
24.17	6.45295
24.18	6.47565
24.19	6.48058
24.2	6.44242
24.21	6.47038
24.22	6.41282
24.23	6.44703
24.24	6.43815
24.25	6.44505
24.26	6.42959
24.27	6.42203
24.28	6.40393
24.29	6.42334
24.3	6.43124
24.31	6.41282
24.32	6.42301
24.33	6.39768
24.34	6.45723
24.35	6.44275
24.36	6.40426
24.37	6.43847
24.38	6.41611
24.39	6.42268
24.4	6.45854
24.41	6.47499
24.42	6.41347
24.43	6.42499
24.44	6.41676
24.45	6.42795
24.46	6.41216
24.47	6.42005
24.48	6.41051
24.49	6.41315
24.5	6.44407
24.51	6.46611
24.52	6.4138
24.53	6.42926
24.54	6.42992
24.55	6.38091
24.56	6.44966
24.57	6.39439
24.58	6.40295
24.59	6.47071
24.6	6.41249
24.61	6.38157
24.62	6.40229
24.63	6.42071
24.64	6.40624
24.65	6.39078
24.66	6.41479
24.67	6.3967
24.68	6.41282
24.69	6.37926
24.7	6.36775
24.71	6.46578
24.72	6.41676
24.73	6.42038
24.74	6.44473
24.75	6.42203
24.76	6.46709
24.77	6.46315
24.78	6.4717
24.79	6.43617
24.8	6.45525
24.81	6.424
24.82	6.44867
24.83	6.41972
24.84	6.40492
24.85	6.42597
24.86	6.40953
24.87	6.41545
24.88	6.39308
24.89	6.40657
24.9	6.44045
24.91	6.47598
24.92	6.41249
24.93	6.43617
24.94	6.43979
24.95	6.4592
24.96	6.42663
24.97	6.42795
24.98	6.47038
24.99	6.42597
25	6.39505
25.01	6.43815
25.02	6.41972
25.03	6.40393
25.04	6.42499
25.05	6.41446
25.06	6.42071
25.07	6.50065
25.08	6.42894
25.09	6.40328
25.1	6.4092
25.11	6.44505
25.12	6.47861
25.13	6.39999
25.14	6.41907
25.15	6.42894
25.16	6.43255
25.17	6.41545
25.18	6.39209
25.19	6.39045
25.2	6.38782
25.21	6.38683
25.22	6.4069
25.23	6.40854
25.24	6.41446
25.25	6.4092
25.26	6.42565
25.27	6.46051
25.28	6.43551
25.29	6.39933
25.3	6.48157
25.31	6.399
25.32	6.41183
25.33	6.39341
25.34	6.39341
25.35	6.449
25.36	6.40032
25.37	6.42696
25.38	6.43749
25.39	6.41446
25.4	6.41084
25.41	6.40624
25.42	6.44538
25.43	6.47433
25.44	6.49078
25.45	6.38913
25.46	6.37005
25.47	6.44505
25.48	6.44341
25.49	6.424
25.5	6.47269
25.51	6.4842
25.52	6.44769
25.53	6.42104
25.54	6.44144
25.55	6.44769
25.56	6.46611
25.57	6.46512
25.58	6.40821
25.59	6.4069
25.6	6.43519
25.61	6.42861
25.62	6.42367
25.63	6.41643
25.64	6.43453
25.65	6.41907
25.66	6.38518
25.67	6.38551
25.68	6.45295
25.69	6.43683
25.7	6.45558
25.71	6.44505
25.72	6.32433
25.73	6.38518
25.74	6.40591
25.75	6.42466
25.76	6.40755
25.77	6.42992
25.78	6.38782
25.79	6.38782
25.8	6.44703
25.81	6.40097
25.82	6.4217
25.83	6.42005
25.84	6.42597
25.85	6.46282
25.86	6.41643
25.87	6.39439
25.88	6.41578
25.89	6.40887
25.9	6.42038
25.91	6.48025
25.92	6.46019
25.93	6.40657
25.94	6.4069
25.95	6.40525
25.96	6.3865
25.97	6.4444
25.98	6.39604
25.99	6.43255
26	6.40295
26.01	6.41676
26.02	6.41479
26.03	6.43255
26.04	6.38913
26.05	6.43782
26.06	6.45755
26.07	6.42992
26.08	6.40525
26.09	6.4263
26.1	6.46874
26.11	6.45065
26.12	6.399
26.13	6.41347
26.14	6.44176
26.15	6.42466
26.16	6.42828
26.17	6.40262
26.18	6.41512
26.19	6.42137
26.2	6.41775
26.21	6.4365
26.22	6.43453
26.23	6.4467
26.24	6.41183
26.25	6.43815
26.26	6.39768
26.27	6.42137
26.28	6.44571
26.29	6.44012
26.3	6.37597
26.31	6.41874
26.32	6.44736
26.33	6.45788
26.34	6.43354
26.35	6.4263
26.36	6.38749
26.37	6.40722
26.38	6.41643
26.39	6.4615
26.4	6.44834
26.41	6.41512
26.42	6.43288
26.43	6.399
26.44	6.37433
26.45	6.41874
26.46	6.37104
26.47	6.40755
26.48	6.44966
26.49	6.41512
26.5	6.44176
26.51	6.39768
26.52	6.42663
26.53	6.43913
26.54	6.44571
26.55	6.45426
26.56	6.41578
26.57	6.40328
26.58	6.4194
26.59	6.40295
26.6	6.44473
26.61	6.42104
26.62	6.40558
26.63	6.36183
26.64	6.38913
26.65	6.45262
26.66	6.43749
26.67	6.39834
26.68	6.40591
26.69	6.43782
26.7	6.41709
26.71	6.42433
26.72	6.39637
26.73	6.38617
26.74	6.39012
26.75	6.38222
26.76	6.38288
26.77	6.40295
26.78	6.40262
26.79	6.41874
26.8	6.42663
26.81	6.41972
26.82	6.42038
26.83	6.42236
26.84	6.40097
26.85	6.37696
26.86	6.37334
26.87	6.41643
26.88	6.41018
26.89	6.39078
26.9	6.38124
26.91	6.37038
26.92	6.44045
26.93	6.40525
26.94	6.37696
26.95	6.34637
26.96	6.39374
26.97	6.39012
26.98	6.43551
26.99	6.42268
27	6.39933
27.01	6.40393
27.02	6.44473
27.03	6.42795
27.04	6.40163
27.05	6.40262
27.06	6.42203
27.07	6.41742
27.08	6.41051
27.09	6.38551
27.1	6.40064
27.11	6.42828
27.12	6.39209
27.13	6.38683
27.14	6.42861
27.15	6.44275
27.16	6.38091
27.17	6.40459
27.18	6.44144
27.19	6.39275
27.2	6.41183
27.21	6.38979
27.22	6.38288
27.23	6.39571
27.24	6.42268
27.25	6.44571
27.26	6.41183
27.27	6.38946
27.28	6.40032
27.29	6.40821
27.3	6.38321
27.31	6.36051
27.32	6.40393
27.33	6.42203
27.34	6.36676
27.35	6.44867
27.36	6.4342
27.37	6.39999
27.38	6.40426
27.39	6.4444
27.4	6.39176
27.41	6.39341
27.42	6.40657
27.43	6.35558
27.44	6.42268
27.45	6.41051
27.46	6.45854
27.47	6.42137
27.48	6.41578
27.49	6.39867
27.5	6.40657
27.51	6.42301
27.52	6.41117
27.53	6.41347
27.54	6.35591
27.55	6.36051
27.56	6.40229
27.57	6.39933
27.58	6.40788
27.59	6.43551
27.6	6.42236
27.61	6.42565
27.62	6.39604
27.63	6.38584
27.64	6.40163
27.65	6.39768
27.66	6.37532
27.67	6.39209
27.68	6.36972
27.69	6.36084
27.7	6.4444
27.71	6.43222
27.72	6.41051
27.73	6.42565
27.74	6.42466
27.75	6.40295
27.76	6.42532
27.77	6.42795
27.78	6.40328
27.79	6.40032
27.8	6.43815
27.81	6.43847
27.82	6.39768
27.83	6.4263
27.84	6.43058
27.85	6.43551
27.86	6.39209
27.87	6.43815
27.88	6.40032
27.89	6.42367
27.9	6.41315
27.91	6.41907
27.92	6.43815
27.93	6.38814
27.94	6.40525
27.95	6.42203
27.96	6.42071
27.97	6.43716
27.98	6.35953
27.99	6.41446
28	6.40295
28.01	6.42005
28.02	6.42071
28.03	6.38453
28.04	6.39439
28.05	6.41709
28.06	6.39768
28.07	6.39538
28.08	6.36874
28.09	6.3161
28.1	6.37532
28.11	6.40558
28.12	6.40525
28.13	6.38387
28.14	6.37795
28.15	6.374
28.16	6.41874
28.17	6.37038
28.18	6.34637
28.19	6.41775
28.2	6.43913
28.21	6.39867
28.22	6.38782
28.23	6.38749
28.24	6.40953
28.25	6.41249
28.26	6.38749
28.27	6.39176
28.28	6.41413
28.29	6.40492
28.3	6.40295
28.31	6.39867
28.32	6.41315
28.33	6.3967
28.34	6.36545
28.35	6.40887
28.36	6.40558
28.37	6.32531
28.38	6.38453
28.39	6.43584
28.4	6.40492
28.41	6.38979
28.42	6.43979
28.43	6.42104
28.44	6.42367
28.45	6.41018
28.46	6.36183
28.47	6.37926
28.48	6.41578
28.49	6.42203
28.5	6.44374
28.51	6.41315
28.52	6.41084
28.53	6.3888
28.54	6.41347
28.55	6.40722
28.56	6.41512
28.57	6.41249
28.58	6.43519
28.59	6.38946
28.6	6.40722
28.61	6.37499
28.62	6.38321
28.63	6.37038
28.64	6.38058
28.65	6.40525
28.66	6.45394
28.67	6.44341
28.68	6.42301
28.69	6.4388
28.7	6.44505
28.71	6.43749
28.72	6.40229
28.73	6.35854
28.74	6.43354
28.75	6.38321
28.76	6.40821
28.77	6.42762
28.78	6.40196
28.79	6.40229
28.8	6.39143
28.81	6.38782
28.82	6.41413
28.83	6.41742
28.84	6.33749
28.85	6.349
28.86	6.39012
28.87	6.424
28.88	6.40459
28.89	6.39209
28.9	6.45361
28.91	6.3842
28.92	6.40393
28.93	6.4819
28.94	6.3842
28.95	6.37203
28.96	6.42301
28.97	6.4092
28.98	6.41611
28.99	6.42268
29	6.39308
29.01	6.40657
29.02	6.41084
29.03	6.35591
29.04	6.41249
29.05	6.38255
29.06	6.40393
29.07	6.34406
29.08	6.4013
29.09	6.399
29.1	6.4388
29.11	6.43946
29.12	6.35295
29.13	6.41249
29.14	6.36018
29.15	6.39768
29.16	6.41315
29.17	6.39275
29.18	6.3717
29.19	6.41051
29.2	6.39143
29.21	6.41545
29.22	6.42696
29.23	6.43354
29.24	6.36775
29.25	6.3365
29.26	6.35262
29.27	6.37367
29.28	6.41676
29.29	6.41084
29.3	6.36972
29.31	6.37532
29.32	6.38979
29.33	6.41808
29.34	6.40163
29.35	6.37663
29.36	6.3536
29.37	6.37235
29.38	6.41874
29.39	6.39538
29.4	6.39538
29.41	6.34768
29.42	6.39439
29.43	6.39111
29.44	6.37893
29.45	6.40591
29.46	6.39703
29.47	6.37762
29.48	6.37203
29.49	6.38913
29.5	6.36907
29.51	6.41051
29.52	6.36018
29.53	6.36281
29.54	6.38189
29.55	6.4069
29.56	6.39045
29.57	6.38913
29.58	6.36249
29.59	6.35295
29.6	6.3638
29.61	6.39143
29.62	6.38485
29.63	6.42038
29.64	6.40788
29.65	6.35591
29.66	6.35854
29.67	6.34604
29.68	6.41183
29.69	6.40854
29.7	6.38354
29.71	6.41282
29.72	6.43025
29.73	6.40229
29.74	6.424
29.75	6.37499
29.76	6.41183
29.77	6.35459
29.78	6.374
29.79	6.35229
29.8	6.38157
29.81	6.38485
29.82	6.38387
29.83	6.39933
29.84	6.36709
29.85	6.37663
29.86	6.42038
29.87	6.38913
29.88	6.36874
29.89	6.43979
29.9	6.41084
29.91	6.38749
29.92	6.40492
29.93	6.42828
29.94	6.44966
29.95	6.37367
29.96	6.44867
29.97	6.38124
29.98	6.39078
29.99	6.4013
30	6.41315
30.01	6.38913
30.02	6.35689
30.03	6.38025
30.04	6.35887
30.05	6.4319
30.06	6.41347
30.07	6.37499
30.08	6.37532
30.09	6.38157
30.1	6.3842
30.11	6.36216
30.12	6.38683
30.13	6.39966
30.14	6.40591
30.15	6.41446
30.16	6.38354
30.17	6.34571
30.18	6.36084
30.19	6.37499
30.2	6.35854
30.21	6.38979
30.22	6.35426
30.23	6.39078
30.24	6.40163
30.25	6.39867
30.26	6.32433
30.27	6.39012
30.28	6.39999
30.29	6.35262
30.3	6.3865
30.31	6.35854
30.32	6.35755
30.33	6.38189
30.34	6.39703
30.35	6.38782
30.36	6.39703
30.37	6.35492
30.38	6.37532
30.39	6.37235
30.4	6.35689
30.41	6.41972
30.42	6.36972
30.43	6.35887
30.44	6.35854
30.45	6.36742
30.46	6.399
30.47	6.3717
30.48	6.37104
30.49	6.39143
30.5	6.35229
30.51	6.37071
30.52	6.45328
30.53	6.38913
30.54	6.40854
30.55	6.38485
30.56	6.37071
30.57	6.3467
30.58	6.37301
30.59	6.3638
30.6	6.35426
30.61	6.35426
30.62	6.38025
30.63	6.35591
30.64	6.3888
30.65	6.35788
30.66	6.41117
30.67	6.37301
30.68	6.34966
30.69	6.33452
30.7	6.38255
30.71	6.40525
30.72	6.39966
30.73	6.38091
30.74	6.36446
30.75	6.35031
30.76	6.41643
30.77	6.38091
30.78	6.36907
30.79	6.34768
30.8	6.33288
30.81	6.37532
30.82	6.40426
30.83	6.38782
30.84	6.34374
30.85	6.43354
30.86	6.42301
30.87	6.3411
30.88	6.33288
30.89	6.40788
30.9	6.4138
30.91	6.40558
30.92	6.39176
30.93	6.399
30.94	6.40558
30.95	6.36643
30.96	6.4138
30.97	6.42038
30.98	6.37992
30.99	6.36216
31	6.41446
31.01	6.40953
31.02	6.39768
31.03	6.34735
31.04	6.3592
31.05	6.39933
31.06	6.3411
31.07	6.41808
31.08	6.39045
31.09	6.36479
31.1	6.40722
31.11	6.40887
31.12	6.3865
31.13	6.39407
31.14	6.38485
31.15	6.39374
31.16	6.38782
31.17	6.37301
31.18	6.36676
31.19	6.37137
31.2	6.39308
31.21	6.37235
31.22	6.34801
31.23	6.39768
31.24	6.38617
31.25	6.37038
31.26	6.38157
31.27	6.39275
31.28	6.39604
31.29	6.36413
31.3	6.39012
31.31	6.40953
31.32	6.42466
31.33	6.34275
31.34	6.38255
31.35	6.3967
31.36	6.37926
31.37	6.36874
31.38	6.3467
31.39	6.35064
31.4	6.35031
31.41	6.39472
31.42	6.43683
31.43	6.41479
31.44	6.40492
31.45	6.32137
31.46	6.38222
31.47	6.40426
31.48	6.38617
31.49	6.42236
31.5	6.32959
31.51	6.35558
31.52	6.36972
31.53	6.4013
31.54	6.399
31.55	6.38946
31.56	6.38189
31.57	6.36808
31.58	6.42104
31.59	6.39407
31.6	6.374
31.61	6.35854
31.62	6.32268
31.63	6.36578
31.64	6.36972
31.65	6.37071
31.66	6.37564
31.67	6.35953
31.68	6.39604
31.69	6.38814
31.7	6.39407
31.71	6.37499
31.72	6.41643
31.73	6.39867
31.74	6.36972
31.75	6.33189
31.76	6.36841
31.77	6.37071
31.78	6.37926
31.79	6.37696
31.8	6.41972
31.81	6.4092
31.82	6.36281
31.83	6.39176
31.84	6.42729
31.85	6.40788
31.86	6.36347
31.87	6.39143
31.88	6.38091
31.89	6.43255
31.9	6.40196
31.91	6.374
31.92	6.34209
31.93	6.37367
31.94	6.35229
31.95	6.36709
31.96	6.42268
31.97	6.39604
31.98	6.39834
31.99	6.39703
32	6.39637
32.01	6.36183
32.02	6.39768
32.03	6.39111
32.04	6.43847
32.05	6.3842
32.06	6.38321
32.07	6.37301
32.08	6.36841
32.09	6.37071
32.1	6.34999
32.11	6.4138
32.12	6.40163
32.13	6.35262
32.14	6.31939
32.15	6.35229
32.16	6.3388
32.17	6.38124
32.18	6.36216
32.19	6.37433
32.2	6.35097
32.21	6.38288
32.22	6.41216
32.23	6.35854
32.24	6.38255
32.25	6.39111
32.26	6.4194
32.27	6.40953
32.28	6.42597
32.29	6.3513
32.3	6.38288
32.31	6.37038
32.32	6.33979
32.33	6.33551
32.34	6.38847
32.35	6.40821
32.36	6.40064
32.37	6.38683
32.38	6.38551
32.39	6.3717
32.4	6.37137
32.41	6.41808
32.42	6.40426
32.43	6.37104
32.44	6.36216
32.45	6.38485
32.46	6.3513
32.47	6.32564
32.48	6.33518
32.49	6.36972
32.5	6.33683
32.51	6.33584
32.52	6.38387
32.53	6.43091
32.54	6.39966
32.55	6.39341
32.56	6.39768
32.57	6.37597
32.58	6.29176
32.59	6.35328
32.6	6.42268
32.61	6.38814
32.62	6.42663
32.63	6.41282
32.64	6.35821
32.65	6.37696
32.66	6.36051
32.67	6.35689
32.68	6.39604
32.69	6.41084
32.7	6.36709
32.71	6.36545
32.72	6.36216
32.73	6.36841
32.74	6.38716
32.75	6.36281
32.76	6.35097
32.77	6.3536
32.78	6.37499
32.79	6.36084
32.8	6.37071
32.81	6.36775
32.82	6.35031
32.83	6.36512
32.84	6.3615
32.85	6.36578
32.86	6.36545
32.87	6.38814
32.88	6.3842
32.89	6.35887
32.9	6.34702
32.91	6.36841
32.92	6.40097
32.93	6.39604
32.94	6.42861
32.95	6.39834
32.96	6.43124
32.97	6.41611
32.98	6.33716
32.99	6.3865
33	6.37564
33.01	6.38354
33.02	6.39966
33.03	6.39275
33.04	6.40064
33.05	6.37038
33.06	6.3967
33.07	6.4115
33.08	6.38847
33.09	6.3661
33.1	6.3467
33.11	6.35722
33.12	6.39472
33.13	6.3717
33.14	6.35097
33.15	6.31446
33.16	6.35624
33.17	6.36775
33.18	6.41808
33.19	6.38354
33.2	6.38288
33.21	6.35064
33.22	6.36051
33.23	6.38091
33.24	6.38716
33.25	6.35788
33.26	6.41084
33.27	6.4388
33.28	6.38255
33.29	6.38946
33.3	6.41183
33.31	6.37663
33.32	6.34801
33.33	6.39143
33.34	6.41051
33.35	6.36347
33.36	6.38913
33.37	6.4342
33.38	6.43321
33.39	6.34999
33.4	6.40755
33.41	6.41282
33.42	6.38617
33.43	6.41315
33.44	6.34176
33.45	6.34735
33.46	6.42663
33.47	6.41183
33.48	6.38387
33.49	6.39999
33.5	6.39571
33.51	6.39571
33.52	6.41907
33.53	6.40262
33.54	6.35887
33.55	6.36347
33.56	6.40986
33.57	6.35163
33.58	6.3513
33.59	6.39439
33.6	6.39078
33.61	6.39407
33.62	6.35064
33.63	6.34834
33.64	6.38058
33.65	6.37203
33.66	6.36742
33.67	6.33716
33.68	6.37564
33.69	6.36972
33.7	6.37071
33.71	6.37334
33.72	6.34505
33.73	6.34801
33.74	6.31545
33.75	6.36084
33.76	6.35262
33.77	6.38683
33.78	6.36874
33.79	6.34735
33.8	6.36512
33.81	6.38354
33.82	6.3513
33.83	6.36775
33.84	6.35097
33.85	6.35064
33.86	6.33124
33.87	6.35558
33.88	6.33518
33.89	6.39834
33.9	6.39242
33.91	6.42203
33.92	6.37301
33.93	6.40097
33.94	6.35229
33.95	6.33749
33.96	6.37762
33.97	6.39374
33.98	6.38025
33.99	6.37038
34	6.35722
34.01	6.36841
34.02	6.34045
34.03	6.34242
34.04	6.37071
34.05	6.38288
34.06	6.38617
34.07	6.34275
34.08	6.34933
34.09	6.3467
34.1	6.3467
34.11	6.34176
34.12	6.36643
34.13	6.3365
34.14	6.38716
34.15	6.36676
34.16	6.3661
34.17	6.37301
34.18	6.37137
34.19	6.33156
34.2	6.38222
34.21	6.3467
34.22	6.38485
34.23	6.37104
34.24	6.35262
34.25	6.39538
34.26	6.34439
34.27	6.39209
34.28	6.41084
34.29	6.36643
34.3	6.31709
34.31	6.3786
34.32	6.3513
34.33	6.36742
34.34	6.37071
34.35	6.35196
34.36	6.40032
34.37	6.35656
34.38	6.3717
34.39	6.35229
34.4	6.3592
34.41	6.35031
34.42	6.32334
34.43	6.32531
34.44	6.37301
34.45	6.37466
34.46	6.38518
34.47	6.41315
34.48	6.32433
34.49	6.37038
34.5	6.33387
34.51	6.3865
34.52	6.37893
34.53	6.39176
34.54	6.38025
34.55	6.33124
34.56	6.32827
34.57	6.36281
34.58	6.38255
34.59	6.3888
34.6	6.39341
34.61	6.33321
34.62	6.35788
34.63	6.39308
34.64	6.42565
34.65	6.42038
34.66	6.3763
34.67	6.31775
34.68	6.35525
34.69	6.39933
34.7	6.36939
34.71	6.40032
34.72	6.37203
34.73	6.37433
34.74	6.39933
34.75	6.39275
34.76	6.41808
34.77	6.43091
34.78	6.42005
34.79	6.40854
34.8	6.38255
34.81	6.35788
34.82	6.33156
34.83	6.34735
34.84	6.35985
34.85	6.37137
34.86	6.3286
34.87	6.35953
34.88	6.34637
34.89	6.37532
34.9	6.36808
34.91	6.35591
34.92	6.35031
34.93	6.34275
34.94	6.349
34.95	6.33716
34.96	6.39505
34.97	6.34341
34.98	6.36051
34.99	6.43584
35	6.34999
35.01	6.36742
35.02	6.37828
35.03	6.38025
35.04	6.34834
35.05	6.39933
35.06	6.43354
35.07	6.37959
35.08	6.39209
35.09	6.38387
35.1	6.39341
35.11	6.33946
35.12	6.34637
35.13	6.424
35.14	6.35064
35.15	6.35854
35.16	6.37597
35.17	6.3865
35.18	6.35064
35.19	6.3786
35.2	6.36676
35.21	6.34702
35.22	6.34341
35.23	6.41742
35.24	6.39768
35.25	6.33255
35.26	6.35656
35.27	6.36051
35.28	6.37433
35.29	6.4263
35.3	6.38485
35.31	6.42433
35.32	6.31479
35.33	6.37071
35.34	6.38749
35.35	6.38222
35.36	6.37433
35.37	6.39407
35.38	6.34242
35.39	6.38749
35.4	6.39111
35.41	6.35097
35.42	6.35492
35.43	6.36907
35.44	6.36709
35.45	6.36249
35.46	6.36512
35.47	6.36018
35.48	6.36742
35.49	6.37104
35.5	6.36479
35.51	6.36939
35.52	6.3865
35.53	6.32827
35.54	6.32433
35.55	6.37235
35.56	6.37992
35.57	6.35064
35.58	6.42729
35.59	6.38321
35.6	6.36907
35.61	6.34768
35.62	6.34637
35.63	6.38255
35.64	6.36775
35.65	6.4069
35.66	6.35295
35.67	6.38485
35.68	6.45328
35.69	6.40887
35.7	6.41643
35.71	6.38485
35.72	6.34966
35.73	6.38321
35.74	6.39703
35.75	6.3615
35.76	6.3138
35.77	6.35656
35.78	6.3763
35.79	6.37104
35.8	6.36742
35.81	6.33551
35.82	6.36578
35.83	6.35755
35.84	6.33025
35.85	6.35525
35.86	6.35624
35.87	6.35525
35.88	6.38617
35.89	6.36972
35.9	6.33189
35.91	6.29998
35.92	6.31841
35.93	6.35887
35.94	6.37005
35.95	6.36051
35.96	6.35295
35.97	6.36939
35.98	6.35295
35.99	6.39472
36	6.37137
36.01	6.33518
36.02	6.34209
36.03	6.37038
36.04	6.36874
36.05	6.36347
36.06	6.38354
36.07	6.34341
36.08	6.35755
36.09	6.31281
36.1	6.32827
36.11	6.38782
36.12	6.37268
36.13	6.37466
36.14	6.39341
36.15	6.35755
36.16	6.36512
36.17	6.34999
36.18	6.27696
36.19	6.31183
36.2	6.34571
36.21	6.30327
36.22	6.3615
36.23	6.33222
36.24	6.41051
36.25	6.34604
36.26	6.38913
36.27	6.38518
36.28	6.34637
36.29	6.36117
36.3	6.34406
36.31	6.36117
36.32	6.41117
36.33	6.31084
36.34	6.37137
36.35	6.34834
36.36	6.31051
36.37	6.33321
36.38	6.35229
36.39	6.3115
36.4	6.35689
36.41	6.31413
36.42	6.35196
36.43	6.36314
36.44	6.36545
36.45	6.40854
36.46	6.36446
36.47	6.39505
36.48	6.37696
36.49	6.33518
36.5	6.37235
36.51	6.35755
36.52	6.36084
36.53	6.32762
36.54	6.31216
36.55	6.36249
36.56	6.33452
36.57	6.31545
36.58	6.31248
36.59	6.38617
36.6	6.38782
36.61	6.36084
36.62	6.31742
36.63	6.31281
36.64	6.36183
36.65	6.38551
36.66	6.40196
36.67	6.38617
36.68	6.30919
36.69	6.37663
36.7	6.35492
36.71	6.36216
36.72	6.36314
36.73	6.33913
36.74	6.31248
36.75	6.38913
36.76	6.38288
36.77	6.35788
36.78	6.39012
36.79	6.4013
36.8	6.35393
36.81	6.34275
36.82	6.35196
36.83	6.3717
36.84	6.34538
36.85	6.349
36.86	6.38453
36.87	6.32827
36.88	6.34933
36.89	6.3513
36.9	6.34702
36.91	6.33749
36.92	6.36775
36.93	6.34637
36.94	6.38453
36.95	6.39407
36.96	6.37268
36.97	6.34966
36.98	6.36709
36.99	6.36709
37	6.38321
37.01	6.38025
37.02	6.4388
37.03	6.38913
37.04	6.3592
37.05	6.36709
37.06	6.31084
37.07	6.3365
37.08	6.41249
37.09	6.324
37.1	6.37532
37.11	6.38683
37.12	6.38058
37.13	6.35854
37.14	6.36018
37.15	6.37104
37.16	6.36249
37.17	6.29768
37.18	6.3036
37.19	6.39176
37.2	6.36314
37.21	6.35624
37.22	6.36117
37.23	6.36084
37.24	6.36874
37.25	6.33946
37.26	6.37795
37.27	6.38288
37.28	6.37959
37.29	6.32992
37.3	6.31676
37.31	6.35887
37.32	6.31808
37.33	6.30952
37.34	6.37268
37.35	6.38485
37.36	6.39275
37.37	6.38683
37.38	6.33551
37.39	6.33222
37.4	6.38387
37.41	6.36578
37.42	6.31808
37.43	6.37828
37.44	6.33156
37.45	6.33847
37.46	6.33354
37.47	6.31577
37.48	6.36709
37.49	6.35426
37.5	6.37597
37.51	6.399
37.52	6.42433
37.53	6.37104
37.54	6.33913
37.55	6.374
37.56	6.35821
37.57	6.35525
37.58	6.31051
37.59	6.30262
37.6	6.35755
37.61	6.33749
37.62	6.35492
37.63	6.37466
37.64	6.34867
37.65	6.32334
37.66	6.32433
37.67	6.34702
37.68	6.39012
37.69	6.34209
37.7	6.349
37.71	6.3592
37.72	6.36709
37.73	6.3388
37.74	6.3536
37.75	6.36446
37.76	6.32827
37.77	6.35328
37.78	6.35821
37.79	6.40591
37.8	6.37038
37.81	6.40393
37.82	6.35097
37.83	6.374
37.84	6.33485
37.85	6.37005
37.86	6.32992
37.87	6.32696
37.88	6.36051
37.89	6.38847
37.9	6.37203
37.91	6.349
37.92	6.38124
37.93	6.38321
37.94	6.37071
37.95	6.32466
37.96	6.39308
37.97	6.39176
37.98	6.37137
37.99	6.37762
38	6.36939
38.01	6.38321
38.02	6.34242
38.03	6.3411
38.04	6.34637
38.05	6.38946
38.06	6.40722
38.07	6.35229
38.08	6.36972
38.09	6.39736
38.1	6.35295
38.11	6.35985
38.12	6.39505
38.13	6.36314
38.14	6.3717
38.15	6.3536
38.16	6.34472
38.17	6.35492
38.18	6.34735
38.19	6.3763
38.2	6.31446
38.21	6.36216
38.22	6.3013
38.23	6.34505
38.24	6.35985
38.25	6.36775
38.26	6.3365
38.27	6.35854
38.28	6.31709
38.29	6.32301
38.3	6.32235
38.31	6.31873
38.32	6.37005
38.33	6.3411
38.34	6.33979
38.35	6.3115
38.36	6.35525
38.37	6.38551
38.38	6.36281
38.39	6.31051
38.4	6.28913
38.41	6.37301
38.42	6.34012
38.43	6.35031
38.44	6.3411
38.45	6.35393
38.46	6.39407
38.47	6.34571
38.48	6.32893
38.49	6.32137
38.5	6.36183
38.51	6.37795
38.52	6.35953
38.53	6.3888
38.54	6.33781
38.55	6.33847
38.56	6.37268
38.57	6.36808
38.58	6.32827
38.59	6.34867
38.6	6.3342
38.61	6.33617
38.62	6.32005
38.63	6.32729
38.64	6.34834
38.65	6.35656
38.66	6.33156
38.67	6.34604
38.68	6.34801
38.69	6.33584
38.7	6.33979
38.71	6.33584
38.72	6.39439
38.73	6.36051
38.74	6.36578
38.75	6.36281
38.76	6.33091
38.77	6.31248
38.78	6.37499
38.79	6.3513
38.8	6.30426
38.81	6.38124
38.82	6.33518
38.83	6.29505
38.84	6.34176
38.85	6.36545
38.86	6.34637
38.87	6.35525
38.88	6.349
38.89	6.29538
38.9	6.36249
38.91	6.32926
38.92	6.35854
38.93	6.35821
38.94	6.34735
38.95	6.33387
38.96	6.33354
38.97	6.39736
38.98	6.38683
38.99	6.33288
39	6.31479
39.01	6.36874
39.02	6.3763
39.03	6.37696
39.04	6.35262
39.05	6.32433
39.06	6.35624
39.07	6.32235
39.08	6.32466
39.09	6.30656
39.1	6.36051
39.11	6.31841
39.12	6.33979
39.13	6.34012
39.14	6.32268
39.15	6.32992
39.16	6.34735
39.17	6.31512
39.18	6.30492
39.19	6.35163
39.2	6.3513
39.21	6.37334
39.22	6.31775
39.23	6.32104
39.24	6.33716
39.25	6.31018
39.26	6.33946
39.27	6.33354
39.28	6.37762
39.29	6.30854
39.3	6.35426
39.31	6.31446
39.32	6.36742
39.33	6.349
39.34	6.36545
39.35	6.34538
39.36	6.3513
39.37	6.35656
39.38	6.33617
39.39	6.32893
39.4	6.374
39.41	6.35295
39.42	6.37532
39.43	6.3717
39.44	6.35097
39.45	6.31281
39.46	6.32071
39.47	6.32104
39.48	6.31873
39.49	6.30821
39.5	6.35492
39.51	6.33387
39.52	6.35854
39.53	6.27268
39.54	6.3411
39.55	6.32729
39.56	6.35393
39.57	6.32005
39.58	6.35656
39.59	6.35887
39.6	6.33091
39.61	6.32137
39.62	6.36512
39.63	6.34735
39.64	6.32005
39.65	6.37433
39.66	6.36676
39.67	6.3717
39.68	6.34768
39.69	6.36018
39.7	6.33584
39.71	6.37499
39.72	6.32663
39.73	6.30262
39.74	6.30459
39.75	6.36314
39.76	6.35064
39.77	6.33156
39.78	6.35459
39.79	6.37104
39.8	6.33321
39.81	6.35854
39.82	6.39176
39.83	6.37466
39.84	6.38288
39.85	6.37466
39.86	6.33025
39.87	6.36709
39.88	6.33091
39.89	6.35328
39.9	6.32762
39.91	6.35459
39.92	6.39867
39.93	6.37235
39.94	6.29801
39.95	6.34735
39.96	6.32795
39.97	6.31709
39.98	6.3467
39.99	6.35163
40	6.35591
40.01	6.34406
40.02	6.29768
40.03	6.3013
40.04	6.31972
40.05	6.36972
40.06	6.36479
40.07	6.36347
40.08	6.28946
40.09	6.34604
40.1	6.36216
40.11	6.349
40.12	6.35558
40.13	6.36775
40.14	6.29768
40.15	6.31676
40.16	6.34966
40.17	6.37663
40.18	6.34209
40.19	6.32531
40.2	6.32564
40.21	6.39374
40.22	6.33683
40.23	6.37104
40.24	6.33485
40.25	6.3467
40.26	6.35821
40.27	6.36479
40.28	6.34308
40.29	6.29472
40.3	6.31347
40.31	6.37071
40.32	6.36512
40.33	6.37235
40.34	6.36183
40.35	6.32466
40.36	6.35492
40.37	6.32959
40.38	6.33091
40.39	6.33749
40.4	6.31446
40.41	6.3342
40.42	6.30887
40.43	6.34242
40.44	6.37334
40.45	6.34077
40.46	6.37466
40.47	6.30492
40.48	6.32334
40.49	6.33189
40.5	6.37367
40.51	6.33452
40.52	6.35262
40.53	6.34735
40.54	6.31183
40.55	6.35755
40.56	6.34341
40.57	6.25952
40.58	6.36413
40.59	6.37005
40.6	6.33946
40.61	6.35887
40.62	6.34472
40.63	6.35525
40.64	6.32827
40.65	6.37466
40.66	6.37959
40.67	6.41512
40.68	6.32959
40.69	6.34045
40.7	6.34472
40.71	6.32367
40.72	6.33781
40.73	6.34768
40.74	6.3536
40.75	6.28748
40.76	6.35624
40.77	6.36183
40.78	6.37104
40.79	6.3661
40.8	6.35459
40.81	6.38847
40.82	6.3638
40.83	6.29834
40.84	6.29998
40.85	6.37926
40.86	6.34275
40.87	6.33222
40.88	6.34702
40.89	6.30788
40.9	6.30623
40.91	6.34966
40.92	6.38288
40.93	6.399
40.94	6.36742
40.95	6.37367
40.96	6.42696
40.97	6.35262
40.98	6.35656
40.99	6.35426
41	6.33124
41.01	6.33189
41.02	6.32268
41.03	6.3365
41.04	6.31873
41.05	6.33946
41.06	6.35229
41.07	6.33091
41.08	6.28222
41.09	6.30229
41.1	6.30919
41.11	6.324
41.12	6.3717
41.13	6.38749
41.14	6.35163
41.15	6.32663
41.16	6.3638
41.17	6.34275
41.18	6.3536
41.19	6.32696
41.2	6.3513
41.21	6.3217
41.22	6.32762
41.23	6.31084
41.24	6.3013
41.25	6.32597
41.26	6.31841
41.27	6.34801
41.28	6.32762
41.29	6.32498
41.3	6.34768
41.31	6.39407
41.32	6.40525
41.33	6.35393
41.34	6.36314
41.35	6.33354
41.36	6.34966
41.37	6.34538
41.38	6.34176
41.39	6.35722
41.4	6.34768
41.41	6.33321
41.42	6.36413
41.43	6.3536
41.44	6.37729
41.45	6.36183
41.46	6.36117
41.47	6.3263
41.48	6.34999
41.49	6.36051
41.5	6.3365
41.51	6.31117
41.52	6.35656
41.53	6.38584
41.54	6.38321
41.55	6.32926
41.56	6.34702
41.57	6.34538
41.58	6.34637
41.59	6.39604
41.6	6.30656
41.61	6.31347
41.62	6.36479
41.63	6.36939
41.64	6.34077
41.65	6.29308
41.66	6.37038
41.67	6.34966
41.68	6.35887
41.69	6.33058
41.7	6.34538
41.71	6.38058
41.72	6.35722
41.73	6.38913
41.74	6.38157
41.75	6.30393
41.76	6.3138
41.77	6.349
41.78	6.35031
41.79	6.38814
41.8	6.32235
41.81	6.2865
41.82	6.34538
41.83	6.35262
41.84	6.3763
41.85	6.32893
41.86	6.34472
41.87	6.34571
41.88	6.31446
41.89	6.30591
41.9	6.35031
41.91	6.3717
41.92	6.34735
41.93	6.34209
41.94	6.33946
41.95	6.33584
41.96	6.38025
41.97	6.36347
41.98	6.33189
41.99	6.33354
42	6.32564
42.01	6.37663
42.02	6.37564
42.03	6.35262
42.04	6.3592
42.05	6.34801
42.06	6.34834
42.07	6.33979
42.08	6.32202
42.09	6.30064
42.1	6.31545
42.11	6.32926
42.12	6.35426
42.13	6.34867
42.14	6.32137
42.15	6.38617
42.16	6.38749
42.17	6.33913
42.18	6.38617
42.19	6.34933
42.2	6.37926
42.21	6.34867
42.22	6.34045
42.23	6.35821
42.24	6.36084
42.25	6.34143
42.26	6.35196
42.27	6.3467
42.28	6.34439
42.29	6.34077
42.3	6.3263
42.31	6.31051
42.32	6.31742
42.33	6.34374
42.34	6.324
42.35	6.35558
42.36	6.3286
42.37	6.3286
42.38	6.33584
42.39	6.33288
42.4	6.32992
42.41	6.27827
42.42	6.31216
42.43	6.32663
42.44	6.26117
42.45	6.3365
42.46	6.32663
42.47	6.34077
42.48	6.34801
42.49	6.35985
42.5	6.35525
42.51	6.33387
42.52	6.35985
42.53	6.36742
42.54	6.33617
42.55	6.31676
42.56	6.31281
42.57	6.36249
42.58	6.32762
42.59	6.31216
42.6	6.29209
42.61	6.34637
42.62	6.34637
42.63	6.30064
42.64	6.29702
42.65	6.31117
42.66	6.3036
42.67	6.32893
42.68	6.37597
42.69	6.33814
42.7	6.31841
42.71	6.34999
42.72	6.36084
42.73	6.36676
42.74	6.32334
42.75	6.31873
42.76	6.30952
42.77	6.34406
42.78	6.37235
42.79	6.38782
42.8	6.28617
42.81	6.30656
42.82	6.31709
42.83	6.36216
42.84	6.33716
42.85	6.33979
42.86	6.31117
42.87	6.3286
42.88	6.31347
42.89	6.33321
42.9	6.36939
42.91	6.33716
42.92	6.34012
42.93	6.3536
42.94	6.30393
42.95	6.31084
42.96	6.35097
42.97	6.32795
42.98	6.34604
42.99	6.33946
43	6.34012
43.01	6.34143
43.02	6.40492
43.03	6.35295
43.04	6.34702
43.05	6.35229
43.06	6.34933
43.07	6.36841
43.08	6.29373
43.09	6.29406
43.1	6.374
43.11	6.33058
43.12	6.34439
43.13	6.36512
43.14	6.33255
43.15	6.33485
43.16	6.33979
43.17	6.35985
43.18	6.34143
43.19	6.32564
43.2	6.31084
43.21	6.35459
43.22	6.33354
43.23	6.31512
43.24	6.3036
43.25	6.38979
43.26	6.35525
43.27	6.2911
43.28	6.33946
43.29	6.38453
43.3	6.36479
43.31	6.3467
43.32	6.32104
43.33	6.32268
43.34	6.35722
43.35	6.34406
43.36	6.34801
43.37	6.32959
43.38	6.23321
43.39	6.3138
43.4	6.32959
43.41	6.32433
43.42	6.36939
43.43	6.33683
43.44	6.30393
43.45	6.33551
43.46	6.32992
43.47	6.28748
43.48	6.3286
43.49	6.34735
43.5	6.36413
43.51	6.3592
43.52	6.36347
43.53	6.32959
43.54	6.28419
43.55	6.32137
43.56	6.34966
43.57	6.35722
43.58	6.3286
43.59	6.39209
43.6	6.35031
43.61	6.33946
43.62	6.30525
43.63	6.33091
43.64	6.33979
43.65	6.30919
43.66	6.38485
43.67	6.35492
43.68	6.34768
43.69	6.31018
43.7	6.33814
43.71	6.28058
43.72	6.33617
43.73	6.28748
43.74	6.30591
43.75	6.36479
43.76	6.3411
43.77	6.40097
43.78	6.32137
43.79	6.35591
43.8	6.32498
43.81	6.31545
43.82	6.32729
43.83	6.3661
43.84	6.35755
43.85	6.29143
43.86	6.35755
43.87	6.37992
43.88	6.35328
43.89	6.35229
43.9	6.36314
43.91	6.349
43.92	6.33156
43.93	6.3342
43.94	6.34341
43.95	6.32597
43.96	6.33452
43.97	6.31446
43.98	6.33814
43.99	6.36775
44	6.35656
44.01	6.35097
44.02	6.30492
44.03	6.28419
44.04	6.34735
44.05	6.28123
44.06	6.33749
44.07	6.35229
44.08	6.3286
44.09	6.40854
44.1	6.39209
44.11	6.3411
44.12	6.36446
44.13	6.31347
44.14	6.33979
44.15	6.40426
44.16	6.33749
44.17	6.40624
44.18	6.3842
44.19	6.31479
44.2	6.32433
44.21	6.36643
44.22	6.33979
44.23	6.32893
44.24	6.33617
44.25	6.35755
44.26	6.33156
44.27	6.33617
44.28	6.32696
44.29	6.30722
44.3	6.27893
44.31	6.34077
44.32	6.32038
44.33	6.30887
44.34	6.39045
44.35	6.30064
44.36	6.35459
44.37	6.35229
44.38	6.3513
44.39	6.34012
44.4	6.35031
44.41	6.32038
44.42	6.34176
44.43	6.33025
44.44	6.32729
44.45	6.30196
44.46	6.32564
44.47	6.37729
44.48	6.34768
44.49	6.33683
44.5	6.32137
44.51	6.35262
44.52	6.34735
44.53	6.3342
44.54	6.29341
44.55	6.34209
44.56	6.27696
44.57	6.3013
44.58	6.30755
44.59	6.28946
44.6	6.31873
44.61	6.34012
44.62	6.34275
44.63	6.31018
44.64	6.37729
44.65	6.34012
44.66	6.32038
44.67	6.34472
44.68	6.37203
44.69	6.31018
44.7	6.3467
44.71	6.31413
44.72	6.34604
44.73	6.33814
44.74	6.33617
44.75	6.35097
44.76	6.34012
44.77	6.34406
44.78	6.37334
44.79	6.3388
44.8	6.33749
44.81	6.34275
44.82	6.34176
44.83	6.37203
44.84	6.33749
44.85	6.37334
44.86	6.34966
44.87	6.35624
44.88	6.3592
44.89	6.34406
44.9	6.38485
44.91	6.40986
44.92	6.41117
44.93	6.3661
44.94	6.37828
44.95	6.33058
44.96	6.35064
44.97	6.3388
44.98	6.30821
44.99	6.33847
45	6.35229
45.01	6.37532
45.02	6.34242
45.03	6.35328
45.04	6.33913
45.05	6.36907
45.06	6.35788
45.07	6.32926
45.08	6.35525
45.09	6.30919
45.1	6.31084
45.11	6.32104
45.12	6.30689
45.13	6.35525
45.14	6.39045
45.15	6.29209
45.16	6.324
45.17	6.35755
45.18	6.3388
45.19	6.35854
45.2	6.27893
45.21	6.35689
45.22	6.32992
45.23	6.31545
45.24	6.29341
45.25	6.33354
45.26	6.40459
45.27	6.33946
45.28	6.34308
45.29	6.34933
45.3	6.30327
45.31	6.32762
45.32	6.36479
45.33	6.34867
45.34	6.29077
45.35	6.3217
45.36	6.36512
45.37	6.33156
45.38	6.32696
45.39	6.33979
45.4	6.37301
45.41	6.34538
45.42	6.32104
45.43	6.28419
45.44	6.33913
45.45	6.35525
45.46	6.36446
45.47	6.35262
45.48	6.33255
45.49	6.35393
45.5	6.39242
45.51	6.3763
45.52	6.36018
45.53	6.31577
45.54	6.28025
45.55	6.33189
45.56	6.35262
45.57	6.34966
45.58	6.27202
45.59	6.25294
45.6	6.31873
45.61	6.34242
45.62	6.30854
45.63	6.33387
45.64	6.3638
45.65	6.36183
45.66	6.35064
45.67	6.33683
45.68	6.34406
45.69	6.34012
45.7	6.35229
45.71	6.33518
45.72	6.3967
45.73	6.34735
45.74	6.29143
45.75	6.3388
45.76	6.33354
45.77	6.33091
45.78	6.32466
45.79	6.33189
45.8	6.32729
45.81	6.34143
45.82	6.32663
45.83	6.32696
45.84	6.39505
45.85	6.37992
45.86	6.37038
45.87	6.42071
45.88	6.30525
45.89	6.27926
45.9	6.33781
45.91	6.28156
45.92	6.32071
45.93	6.33617
45.94	6.3365
45.95	6.36446
45.96	6.31841
45.97	6.32729
45.98	6.34143
45.99	6.32959
46	6.36512
46.01	6.33551
46.02	6.31906
46.03	6.32104
46.04	6.34801
46.05	6.33387
46.06	6.33189
46.07	6.34538
46.08	6.37532
46.09	6.3513
46.1	6.35295
46.11	6.35722
46.12	6.33781
46.13	6.34472
46.14	6.32268
46.15	6.34374
46.16	6.30262
46.17	6.34834
46.18	6.34867
46.19	6.29242
46.2	6.31676
46.21	6.35097
46.22	6.35558
46.23	6.3888
46.24	6.39209
46.25	6.38453
46.26	6.33058
46.27	6.34472
46.28	6.34966
46.29	6.27465
46.3	6.30656
46.31	6.37137
46.32	6.33485
46.33	6.32729
46.34	6.31216
46.35	6.29933
46.36	6.28913
46.37	6.34604
46.38	6.37762
46.39	6.34374
46.4	6.32827
46.41	6.31084
46.42	6.374
46.43	6.38847
46.44	6.38847
46.45	6.38387
46.46	6.36939
46.47	6.38189
46.48	6.35591
46.49	6.33716
46.5	6.39045
46.51	6.30064
46.52	6.32762
46.53	6.36051
46.54	6.35953
46.55	6.32663
46.56	6.32926
46.57	6.35558
46.58	6.3467
46.59	6.36018
46.6	6.35328
46.61	6.36808
46.62	6.36446
46.63	6.34604
46.64	6.36512
46.65	6.36709
46.66	6.34275
46.67	6.35262
46.68	6.36183
46.69	6.36249
46.7	6.374
46.71	6.35492
46.72	6.39374
46.73	6.3411
46.74	6.29998
46.75	6.32729
46.76	6.35985
46.77	6.34999
46.78	6.34637
46.79	6.29341
46.8	6.31117
46.81	6.324
46.82	6.35163
46.83	6.38782
46.84	6.32762
46.85	6.34045
46.86	6.31216
46.87	6.39045
46.88	6.36939
46.89	6.35985
46.9	6.36117
46.91	6.36512
46.92	6.3513
46.93	6.3036
46.94	6.39966
46.95	6.33255
46.96	6.32795
46.97	6.36051
46.98	6.37268
46.99	6.39341
47	6.349
47.01	6.33222
47.02	6.3411
47.03	6.29933
47.04	6.34538
47.05	6.30952
47.06	6.35689
47.07	6.29867
47.08	6.34176
47.09	6.32663
47.1	6.30426
47.11	6.31512
47.12	6.29176
47.13	6.34045
47.14	6.29966
47.15	6.30459
47.16	6.35788
47.17	6.31939
47.18	6.34176
47.19	6.31216
47.2	6.32696
47.21	6.39308
47.22	6.38025
47.23	6.37696
47.24	6.35656
47.25	6.33255
47.26	6.33781
47.27	6.33979
47.28	6.34933
47.29	6.3661
47.3	6.34933
47.31	6.35097
47.32	6.33255
47.33	6.31545
47.34	6.30755
47.35	6.3342
47.36	6.32827
47.37	6.33847
47.38	6.40328
47.39	6.38913
47.4	6.35854
47.41	6.32334
47.42	6.3217
47.43	6.30656
47.44	6.28518
47.45	6.32762
47.46	6.36841
47.47	6.39012
47.48	6.32137
47.49	6.34604
47.5	6.30887
47.51	6.29308
47.52	6.33814
47.53	6.3286
47.54	6.38716
47.55	6.35591
47.56	6.35887
47.57	6.36281
47.58	6.28979
47.59	6.31709
47.6	6.3411
47.61	6.34571
47.62	6.3138
47.63	6.35591
47.64	6.34406
47.65	6.35953
47.66	6.32038
47.67	6.34768
47.68	6.38354
47.69	6.32795
47.7	6.35624
47.71	6.35755
47.72	6.33979
47.73	6.35097
47.74	6.32762
47.75	6.34768
47.76	6.32992
47.77	6.29998
47.78	6.31972
47.79	6.33518
47.8	6.31183
47.81	6.26446
47.82	6.32597
47.83	6.32038
47.84	6.35854
47.85	6.33321
47.86	6.29308
47.87	6.28946
47.88	6.33518
47.89	6.37959
47.9	6.3365
47.91	6.33321
47.92	6.35426
47.93	6.32433
47.94	6.34275
47.95	6.33025
47.96	6.34538
47.97	6.33091
47.98	6.36939
47.99	6.35591
48	6.36117
48.01	6.30031
48.02	6.32433
48.03	6.36939
48.04	6.37334
48.05	6.37433
48.06	6.31446
48.07	6.34374
48.08	6.34538
48.09	6.35985
48.1	6.29373
48.11	6.30887
48.12	6.36578
48.13	6.32893
48.14	6.33091
48.15	6.31709
48.16	6.36347
48.17	6.34308
48.18	6.33288
48.19	6.32992
48.2	6.34933
48.21	6.3592
48.22	6.36545
48.23	6.33222
48.24	6.38485
48.25	6.3013
48.26	6.30327
48.27	6.35985
48.28	6.37663
48.29	6.36413
48.3	6.32367
48.31	6.35689
48.32	6.35656
48.33	6.33485
48.34	6.36643
48.35	6.35591
48.36	6.3161
48.37	6.32531
48.38	6.31084
48.39	6.31577
48.4	6.3763
48.41	6.32729
48.42	6.37137
48.43	6.2865
48.44	6.32498
48.45	6.38124
48.46	6.33683
48.47	6.33321
48.48	6.34538
48.49	6.35031
48.5	6.35722
48.51	6.32301
48.52	6.32827
48.53	6.34143
48.54	6.35525
48.55	6.31479
48.56	6.29867
48.57	6.32137
48.58	6.35722
48.59	6.38124
48.6	6.3717
48.61	6.33749
48.62	6.34374
48.63	6.35097
48.64	6.34834
48.65	6.33847
48.66	6.32498
48.67	6.29505
48.68	6.35953
48.69	6.37532
48.7	6.33814
48.71	6.39604
48.72	6.33025
48.73	6.32433
48.74	6.35887
48.75	6.36413
48.76	6.36281
48.77	6.33387
48.78	6.34867
48.79	6.299
48.8	6.29801
48.81	6.33058
48.82	6.32301
48.83	6.35821
48.84	6.32795
48.85	6.30919
48.86	6.33255
48.87	6.36281
48.88	6.34702
48.89	6.37893
48.9	6.37959
48.91	6.33189
48.92	6.39275
48.93	6.2786
48.94	6.2865
48.95	6.32268
48.96	6.38814
48.97	6.39867
48.98	6.34012
48.99	6.33452
49	6.37104
49.01	6.30393
49.02	6.2911
49.03	6.32795
49.04	6.34374
49.05	6.31643
49.06	6.30952
49.07	6.33189
49.08	6.34834
49.09	6.3536
49.1	6.37992
49.11	6.36578
49.12	6.35492
49.13	6.28814
49.14	6.33716
49.15	6.40032
49.16	6.36709
49.17	6.3842
49.18	6.33354
49.19	6.37268
49.2	6.36578
49.21	6.33058
49.22	6.35393
49.23	6.32663
49.24	6.36446
49.25	6.33518
49.26	6.31347
49.27	6.35459
49.28	6.36512
49.29	6.36084
49.3	6.34702
49.31	6.3286
49.32	6.33025
49.33	6.30196
49.34	6.32795
49.35	6.34834
49.36	6.36117
49.37	6.33452
49.38	6.29308
49.39	6.34768
49.4	6.34209
49.41	6.3286
49.42	6.299
49.43	6.33156
49.44	6.31183
49.45	6.33124
49.46	6.34275
49.47	6.32597
49.48	6.31084
49.49	6.36314
49.5	6.33387
49.51	6.3536
49.52	6.38946
49.53	6.35854
49.54	6.29998
49.55	6.3217
49.56	6.37071
49.57	6.3865
49.58	6.39604
49.59	6.3467
49.6	6.33124
49.61	6.35163
49.62	6.34867
49.63	6.36281
49.64	6.29637
49.65	6.32564
49.66	6.35328
49.67	6.34933
49.68	6.30229
49.69	6.30393
49.7	6.38255
49.71	6.35328
49.72	6.3263
49.73	6.33288
49.74	6.34176
49.75	6.36117
49.76	6.31676
49.77	6.33222
49.78	6.32498
49.79	6.33387
49.8	6.34538
49.81	6.3513
49.82	6.33946
49.83	6.33749
49.84	6.35656
49.85	6.38124
49.86	6.34702
49.87	6.32959
49.88	6.34242
49.89	6.38782
49.9	6.34538
49.91	6.30393
49.92	6.24932
49.93	6.30327
49.94	6.31676
49.95	6.374
49.96	6.34077
49.97	6.36643
49.98	6.37926
49.99	6.31906
50	6.36643
