"BIO-KINE ASCII FILE"
"_COMMENT"	"MOS-500 Spectrometer"
"_COMMENT"	"Kinetics measurement"
"_COMMENT"	"Y Unit : Volt,  X Unit : s"
"_COMMENT"	"Excitation wavelength : 380 nm"
"_COMMENT"	"Fentes bandwidth =  1 nm"
"_COMMENT"	"HV= 1000V"
"_COMMENT"	"Timebase  1 =  .01 s   5001 pts"
"_SFM"	"SFM-400 /S  Advanced mode"
"_SFM"	"Ratio : S1: 2.5, S2: 0, S3: 0, S4: 1"
"_SFM"	"Content : S1: , S2: , S3: , S4:"
"_SFM"	"Concentration : S1: , S2: , S3: , S4:"
"_SFM"	"Total volume : 209 µl  Flow : 3.5 mL/s"
"_SFM"	"Acquisition start :  10 ms before stop"
"_SFM"	"cuve=FC-15, s1=10 ml , s2=10 ml , s3=10 ml , s4=1.9 ml"
"_UNITX"	"s"
"_UNITY"	"Volt"
"_DELTAX"	0
"_DATA"
1e-300	2.665
0.01	2.65316
0.02	2.67421
0.03	2.68869
0.04	2.71369
0.05	2.75053
0.06	2.78672
0.07	2.77948
0.08	2.83277
0.09	2.82093
0.1	2.81863
0.11	2.83573
0.12	2.85415
0.13	2.86238
0.14	2.8683
0.15	2.866
0.16	2.8535
0.17	2.85876
0.18	2.87323
0.19	2.8535
0.2	2.82619
0.21	2.84264
0.22	2.8433
0.23	2.86402
0.24	2.88343
0.25	2.87389
0.26	2.88047
0.27	2.85119
0.28	2.84725
0.29	2.87587
0.3	2.86008
0.31	2.85909
0.32	2.86402
0.33	2.88014
0.34	2.87587
0.35	2.89001
0.36	2.89955
0.37	2.87883
0.38	2.84396
0.39	2.88409
0.4	2.90712
0.41	2.90448
0.42	2.88047
0.43	2.84297
0.44	2.86435
0.45	2.8456
0.46	2.86665
0.47	2.86896
0.48	2.86731
0.49	2.89692
0.5	2.87389
0.51	2.87587
0.52	2.91106
0.53	2.87488
0.54	2.8831
0.55	2.86863
0.56	2.86205
0.57	2.88244
0.58	2.86797
0.59	2.86764
0.6	2.85909
0.61	2.87883
0.62	2.841
0.63	2.86205
0.64	2.89889
0.65	2.86534
0.66	2.86172
0.67	2.85218
0.68	2.8558
0.69	2.85054
0.7	2.85415
0.71	2.86633
0.72	2.89429
0.73	2.86271
0.74	2.8683
0.75	2.84461
0.76	2.83047
0.77	2.866
0.78	2.86106
0.79	2.86764
0.8	2.85711
0.81	2.85942
0.82	2.87784
0.83	2.86665
0.84	2.85481
0.85	2.82389
0.86	2.88047
0.87	2.87948
0.88	2.86139
0.89	2.86205
0.9	2.86698
0.91	2.85054
0.92	2.86336
0.93	2.83771
0.94	2.84659
0.95	2.87948
0.96	2.83836
0.97	2.82553
0.98	2.84659
0.99	2.84067
1	2.8808
1.01	2.85251
1.02	2.86106
1.03	2.86994
1.04	2.88376
1.05	2.86764
1.06	2.86106
1.07	2.88804
1.08	2.86567
1.09	2.8706
1.1	2.86336
1.11	2.8604
1.12	2.85679
1.13	2.8354
1.14	2.841
1.15	2.84692
1.16	2.86994
1.17	2.85448
1.18	2.84593
1.19	2.83902
1.2	2.86994
1.21	2.80711
1.22	2.86304
1.23	2.87883
1.24	2.87981
1.25	2.84659
1.26	2.88047
1.27	2.84823
1.28	2.84922
1.29	2.84067
1.3	2.86139
1.31	2.8285
1.32	2.8581
1.33	2.86304
1.34	2.84034
1.35	2.8558
1.36	2.85152
1.37	2.83507
1.38	2.84461
1.39	2.84198
1.4	2.85481
1.41	2.8558
1.42	2.88639
1.43	2.83869
1.44	2.88047
1.45	2.86139
1.46	2.8683
1.47	2.85317
1.48	2.84593
1.49	2.83014
1.5	2.84593
1.51	2.8581
1.52	2.84856
1.53	2.84889
1.54	2.86896
1.55	2.84429
1.56	2.82751
1.57	2.83442
1.58	2.87455
1.59	2.866
1.6	2.84461
1.61	2.87685
1.62	2.83803
1.63	2.83672
1.64	2.84725
1.65	2.83475
1.66	2.88606
1.67	2.85613
1.68	2.83606
1.69	2.8456
1.7	2.8479
1.71	2.81534
1.72	2.84922
1.73	2.85382
1.74	2.85448
1.75	2.81501
1.76	2.81994
1.77	2.8479
1.78	2.86172
1.79	2.84955
1.8	2.87027
1.81	2.88146
1.82	2.84231
1.83	2.83639
1.84	2.82488
1.85	2.85152
1.86	2.85284
1.87	2.85317
1.88	2.84889
1.89	2.82455
1.9	2.85843
1.91	2.85382
1.92	2.82981
1.93	2.84659
1.94	2.8285
1.95	2.83672
1.96	2.84527
1.97	2.82488
1.98	2.86896
1.99	2.86764
2	2.84725
2.01	2.8604
2.02	2.8331
2.03	2.8104
2.04	2.88343
2.05	2.85711
2.06	2.83705
2.07	2.8535
2.08	2.87422
2.09	2.85218
2.1	2.86961
2.11	2.80942
2.12	2.84626
2.13	2.82817
2.14	2.81073
2.15	2.83277
2.16	2.8229
2.17	2.83178
2.18	2.81534
2.19	2.85777
2.2	2.82652
2.21	2.82619
2.22	2.82882
2.23	2.84955
2.24	2.81961
2.25	2.84264
2.26	2.8229
2.27	2.8183
2.28	2.81896
2.29	2.84231
2.3	2.84889
2.31	2.83442
2.32	2.8229
2.33	2.8433
2.34	2.81764
2.35	2.8785
2.36	2.84856
2.37	2.83014
2.38	2.83475
2.39	2.81271
2.4	2.8354
2.41	2.82784
2.42	2.83705
2.43	2.8581
2.44	2.84527
2.45	2.85613
2.46	2.84494
2.47	2.81435
2.48	2.82488
2.49	2.84988
2.5	2.85185
2.51	2.86698
2.52	2.84889
2.53	2.87027
2.54	2.82224
2.55	2.8081
2.56	2.81468
2.57	2.84231
2.58	2.83442
2.59	2.83902
2.6	2.83803
2.61	2.81271
2.62	2.82685
2.63	2.83705
2.64	2.81863
2.65	2.80974
2.66	2.86534
2.67	2.84165
2.68	2.81172
2.69	2.79889
2.7	2.79165
2.71	2.85284
2.72	2.83771
2.73	2.8081
2.74	2.8058
2.75	2.84034
2.76	2.81632
2.77	2.84725
2.78	2.85679
2.79	2.82751
2.8	2.84593
2.81	2.80349
2.82	2.84659
2.83	2.80349
2.84	2.83343
2.85	2.84198
2.86	2.81797
2.87	2.81599
2.88	2.81863
2.89	2.80481
2.9	2.84264
2.91	2.87356
2.92	2.85613
2.93	2.84626
2.94	2.8456
2.95	2.84922
2.96	2.8354
2.97	2.8354
2.98	2.81961
2.99	2.85251
3	2.83639
3.01	2.80645
3.02	2.82652
3.03	2.80777
3.04	2.80086
3.05	2.82422
3.06	2.81369
3.07	2.84363
3.08	2.79757
3.09	2.79461
3.1	2.8285
3.11	2.83869
3.12	2.82323
3.13	2.841
3.14	2.79132
3.15	2.81468
3.16	2.8104
3.17	2.82981
3.18	2.83014
3.19	2.81336
3.2	2.82784
3.21	2.84034
3.22	2.82817
3.23	2.81336
3.24	2.78573
3.25	2.82192
3.26	2.80942
3.27	2.82126
3.28	2.81764
3.29	2.8104
3.3	2.83178
3.31	2.8229
3.32	2.81106
3.33	2.84001
3.34	2.80547
3.35	2.80415
3.36	2.80974
3.37	2.79132
3.38	2.83738
3.39	2.80613
3.4	2.78507
3.41	2.8433
3.42	2.82619
3.43	2.80185
3.44	2.83803
3.45	2.85547
3.46	2.85481
3.47	2.82126
3.48	2.80547
3.49	2.78113
3.5	2.78113
3.51	2.80613
3.52	2.82652
3.53	2.77915
3.54	2.82685
3.55	2.83475
3.56	2.80086
3.57	2.79692
3.58	2.81731
3.59	2.79363
3.6	2.82422
3.61	2.81435
3.62	2.81106
3.63	2.81961
3.64	2.83014
3.65	2.79922
3.66	2.82817
3.67	2.82553
3.68	2.81501
3.69	2.79757
3.7	2.79889
3.71	2.80317
3.72	2.81928
3.73	2.82619
3.74	2.81896
3.75	2.83672
3.76	2.8081
3.77	2.81007
3.78	2.8229
3.79	2.81205
3.8	2.8104
3.81	2.84231
3.82	2.82718
3.83	2.80349
3.84	2.80843
3.85	2.83935
3.86	2.83442
3.87	2.8229
3.88	2.79724
3.89	2.79889
3.9	2.80448
3.91	2.8183
3.92	2.81402
3.93	2.84692
3.94	2.82159
3.95	2.78836
3.96	2.8058
3.97	2.80547
3.98	2.83935
3.99	2.841
4	2.84461
4.01	2.81698
4.02	2.81994
4.03	2.83146
4.04	2.80645
4.05	2.78047
4.06	2.82488
4.07	2.80086
4.08	2.81534
4.09	2.84297
4.1	2.81139
4.11	2.80514
4.12	2.81402
4.13	2.81797
4.14	2.81599
4.15	2.81172
4.16	2.82751
4.17	2.8308
4.18	2.79856
4.19	2.80678
4.2	2.82323
4.21	2.78705
4.22	2.84132
4.23	2.81468
4.24	2.79889
4.25	2.79757
4.26	2.78573
4.27	2.7729
4.28	2.80119
4.29	2.81863
4.3	2.81369
4.31	2.80481
4.32	2.80942
4.33	2.79363
4.34	2.84067
4.35	2.85251
4.36	2.82323
4.37	2.82553
4.38	2.82027
4.39	2.77619
4.4	2.80317
4.41	2.81731
4.42	2.8058
4.43	2.81007
4.44	2.79692
4.45	2.79988
4.46	2.80349
4.47	2.81402
4.48	2.79626
4.49	2.83343
4.5	2.8433
4.51	2.81139
4.52	2.81632
4.53	2.81139
4.54	2.77685
4.55	2.7729
4.56	2.79692
4.57	2.80349
4.58	2.81599
4.59	2.82652
4.6	2.80909
4.61	2.79494
4.62	2.81369
4.63	2.81961
4.64	2.79856
4.65	2.78672
4.66	2.8104
4.67	2.81073
4.68	2.8058
4.69	2.82093
4.7	2.7956
4.71	2.78902
4.72	2.77093
4.73	2.8058
4.74	2.82586
4.75	2.80119
4.76	2.79428
4.77	2.8104
4.78	2.81994
4.79	2.78738
4.8	2.80974
4.81	2.80218
4.82	2.82224
4.83	2.82652
4.84	2.8331
4.85	2.82915
4.86	2.78705
4.87	2.82652
4.88	2.8285
4.89	2.81271
4.9	2.81139
4.91	2.80942
4.92	2.79527
4.93	2.8183
4.94	2.78902
4.95	2.81271
4.96	2.79527
4.97	2.7831
4.98	2.82422
4.99	2.81665
5	2.79659
5.01	2.80185
5.02	2.80152
5.03	2.8183
5.04	2.8229
5.05	2.78277
5.06	2.78145
5.07	2.80678
5.08	2.81731
5.09	2.79034
5.1	2.82948
5.11	2.82224
5.12	2.80086
5.13	2.81797
5.14	2.81961
5.15	2.76764
5.16	2.8002
5.17	2.79297
5.18	2.7956
5.19	2.81435
5.2	2.80284
5.21	2.81435
5.22	2.81139
5.23	2.79659
5.24	2.79034
5.25	2.77751
5.26	2.81863
5.27	2.80843
5.28	2.82718
5.29	2.81172
5.3	2.80942
5.31	2.80711
5.32	2.82784
5.33	2.78902
5.34	2.7979
5.35	2.83014
5.36	2.81106
5.37	2.81698
5.38	2.82389
5.39	2.79527
5.4	2.80547
5.41	2.80317
5.42	2.79428
5.43	2.79428
5.44	2.79066
5.45	2.78902
5.46	2.79659
5.47	2.80744
5.48	2.80415
5.49	2.83935
5.5	2.79692
5.51	2.79593
5.52	2.78606
5.53	2.79757
5.54	2.79198
5.55	2.78836
5.56	2.82356
5.57	2.80613
5.58	2.76698
5.59	2.81238
5.6	2.79626
5.61	2.79165
5.62	2.80613
5.63	2.79724
5.64	2.81599
5.65	2.81928
5.66	2.81797
5.67	2.80942
5.68	2.77553
5.69	2.77849
5.7	2.79395
5.71	2.77685
5.72	2.7933
5.73	2.78277
5.74	2.79889
5.75	2.78935
5.76	2.77685
5.77	2.81764
5.78	2.81007
5.79	2.79264
5.8	2.78869
5.81	2.78211
5.82	2.7831
5.83	2.77159
5.84	2.7752
5.85	2.82093
5.86	2.79034
5.87	2.82093
5.88	2.81599
5.89	2.82257
5.9	2.78047
5.91	2.77422
5.92	2.77915
5.93	2.79066
5.94	2.81336
5.95	2.77093
5.96	2.80086
5.97	2.78738
5.98	2.78441
5.99	2.79231
6	2.80317
6.01	2.7683
6.02	2.80514
6.03	2.8058
6.04	2.81896
6.05	2.80284
6.06	2.78277
6.07	2.80382
6.08	2.77487
6.09	2.78573
6.1	2.7877
6.11	2.77553
6.12	2.77816
6.13	2.80185
6.14	2.8058
6.15	2.81073
6.16	2.7979
6.17	2.81468
6.18	2.79955
6.19	2.78441
6.2	2.81863
6.21	2.79132
6.22	2.7808
6.23	2.78573
6.24	2.78507
6.25	2.7877
6.26	2.78573
6.27	2.77751
6.28	2.77027
6.29	2.78014
6.3	2.7706
6.31	2.78343
6.32	2.80448
6.33	2.78705
6.34	2.8183
6.35	2.80547
6.36	2.76895
6.37	2.79593
6.38	2.81896
6.39	2.77224
6.4	2.77455
6.41	2.80843
6.42	2.78738
6.43	2.78968
6.44	2.77224
6.45	2.79527
6.46	2.75974
6.47	2.78474
6.48	2.80119
6.49	2.82784
6.5	2.80152
6.51	2.81534
6.52	2.79889
6.53	2.77718
6.54	2.77652
6.55	2.77981
6.56	2.77816
6.57	2.78211
6.58	2.79823
6.59	2.78606
6.6	2.80711
6.61	2.79856
6.62	2.79297
6.63	2.80218
6.64	2.76764
6.65	2.78113
6.66	2.81106
6.67	2.79955
6.68	2.81468
6.69	2.7627
6.7	2.76205
6.71	2.81534
6.72	2.78672
6.73	2.80481
6.74	2.80086
6.75	2.79626
6.76	2.76336
6.77	2.77487
6.78	2.74823
6.79	2.78507
6.8	2.77422
6.81	2.80843
6.82	2.80876
6.83	2.80119
6.84	2.78244
6.85	2.79165
6.86	2.79099
6.87	2.78935
6.88	2.79724
6.89	2.80711
6.9	2.77784
6.91	2.77882
6.92	2.78113
6.93	2.78145
6.94	2.77257
6.95	2.7979
6.96	2.78968
6.97	2.81731
6.98	2.7877
6.99	2.79099
7	2.79922
7.01	2.77948
7.02	2.79231
7.03	2.78606
7.04	2.78474
7.05	2.78047
7.06	2.80317
7.07	2.79198
7.08	2.73211
7.09	2.77751
7.1	2.81073
7.11	2.76994
7.12	2.79527
7.13	2.80777
7.14	2.81139
7.15	2.77915
7.16	2.75218
7.17	2.77948
7.18	2.81764
7.19	2.76862
7.2	2.76599
7.21	2.76764
7.22	2.79066
7.23	2.79692
7.24	2.79264
7.25	2.7808
7.26	2.79988
7.27	2.79659
7.28	2.78409
7.29	2.77849
7.3	2.76928
7.31	2.77882
7.32	2.75843
7.33	2.7354
7.34	2.77685
7.35	2.75251
7.36	2.77487
7.37	2.74823
7.38	2.73376
7.39	2.77027
7.4	2.78014
7.41	2.78606
7.42	2.80086
7.43	2.76994
7.44	2.77126
7.45	2.75876
7.46	2.74823
7.47	2.78409
7.48	2.79165
7.49	2.77356
7.5	2.8285
7.51	2.80349
7.52	2.80284
7.53	2.84494
7.54	2.81205
7.55	2.77981
7.56	2.77422
7.57	2.8002
7.58	2.7877
7.59	2.76073
7.6	2.76534
7.61	2.78376
7.62	2.76764
7.63	2.75908
7.64	2.78639
7.65	2.7979
7.66	2.78441
7.67	2.77948
7.68	2.78211
7.69	2.81007
7.7	2.75448
7.71	2.74626
7.72	2.76961
7.73	2.76369
7.74	2.76435
7.75	2.77455
7.76	2.78803
7.77	2.76073
7.78	2.77915
7.79	2.75251
7.8	2.76435
7.81	2.76007
7.82	2.77224
7.83	2.78639
7.84	2.78705
7.85	2.76961
7.86	2.75514
7.87	2.78474
7.88	2.79001
7.89	2.78047
7.9	2.76994
7.91	2.76764
7.92	2.75547
7.93	2.76862
7.94	2.7581
7.95	2.73672
7.96	2.73935
7.97	2.76402
7.98	2.75119
7.99	2.76501
8	2.74395
8.01	2.77356
8.02	2.77126
8.03	2.78211
8.04	2.78803
8.05	2.78902
8.06	2.7752
8.07	2.78145
8.08	2.79198
8.09	2.79099
8.1	2.77948
8.11	2.7752
8.12	2.76534
8.13	2.8229
8.14	2.76501
8.15	2.7729
8.16	2.78869
8.17	2.75876
8.18	2.77159
8.19	2.75547
8.2	2.79264
8.21	2.78606
8.22	2.80152
8.23	2.7683
8.24	2.76106
8.25	2.76928
8.26	2.7831
8.27	2.7683
8.28	2.73408
8.29	2.76237
8.3	2.78968
8.31	2.77685
8.32	2.78803
8.33	2.76797
8.34	2.80349
8.35	2.79198
8.36	2.75711
8.37	2.75316
8.38	2.75086
8.39	2.76468
8.4	2.77948
8.41	2.76928
8.42	2.79198
8.43	2.77257
8.44	2.74987
8.45	2.78409
8.46	2.76336
8.47	2.79297
8.48	2.77323
8.49	2.76007
8.5	2.79099
8.51	2.78606
8.52	2.78014
8.53	2.78376
8.54	2.79922
8.55	2.7627
8.56	2.78277
8.57	2.77389
8.58	2.78047
8.59	2.77652
8.6	2.77093
8.61	2.78145
8.62	2.77323
8.63	2.78441
8.64	2.79165
8.65	2.76961
8.66	2.77126
8.67	2.76468
8.68	2.80744
8.69	2.77126
8.7	2.78014
8.71	2.7604
8.72	2.78507
8.73	2.75908
8.74	2.78014
8.75	2.75185
8.76	2.77224
8.77	2.80547
8.78	2.77981
8.79	2.75283
8.8	2.75678
8.81	2.78277
8.82	2.77323
8.83	2.7706
8.84	2.77422
8.85	2.76895
8.86	2.7627
8.87	2.75152
8.88	2.76797
8.89	2.73935
8.9	2.73014
8.91	2.75744
8.92	2.76632
8.93	2.78869
8.94	2.74395
8.95	2.74362
8.96	2.74691
8.97	2.78277
8.98	2.76632
8.99	2.76468
9	2.76237
9.01	2.76369
9.02	2.77224
9.03	2.77652
9.04	2.77191
9.05	2.75678
9.06	2.76632
9.07	2.77586
9.08	2.76665
9.09	2.8081
9.1	2.78376
9.11	2.7627
9.12	2.74691
9.13	2.74593
9.14	2.7479
9.15	2.77619
9.16	2.77356
9.17	2.79034
9.18	2.77093
9.19	2.79231
9.2	2.73803
9.21	2.75349
9.22	2.7581
9.23	2.76139
9.24	2.78376
9.25	2.76303
9.26	2.75744
9.27	2.80317
9.28	2.80086
9.29	2.76106
9.3	2.77389
9.31	2.77224
9.32	2.75415
9.33	2.78409
9.34	2.78738
9.35	2.77849
9.36	2.78343
9.37	2.80218
9.38	2.7604
9.39	2.76928
9.4	2.77751
9.41	2.76073
9.42	2.77224
9.43	2.76961
9.44	2.77718
9.45	2.75908
9.46	2.76862
9.47	2.77159
9.48	2.74099
9.49	2.77948
9.5	2.73277
9.51	2.7558
9.52	2.75152
9.53	2.75876
9.54	2.75514
9.55	2.78441
9.56	2.79001
9.57	2.79527
9.58	2.79001
9.59	2.79856
9.6	2.80317
9.61	2.8058
9.62	2.78968
9.63	2.79034
9.64	2.80251
9.65	2.78705
9.66	2.77816
9.67	2.79099
9.68	2.77652
9.69	2.78639
9.7	2.76599
9.71	2.74955
9.72	2.74757
9.73	2.75876
9.74	2.72487
9.75	2.76402
9.76	2.77586
9.77	2.75349
9.78	2.76172
9.79	2.74658
9.8	2.76764
9.81	2.77685
9.82	2.79889
9.83	2.79889
9.84	2.7854
9.85	2.75876
9.86	2.74987
9.87	2.74691
9.88	2.77652
9.89	2.7956
9.9	2.77224
9.91	2.75678
9.92	2.75974
9.93	2.74461
9.94	2.73639
9.95	2.76468
9.96	2.76797
9.97	2.74461
9.98	2.74658
9.99	2.75382
10	2.77389
10.01	2.77948
10.02	2.80284
10.03	2.77257
10.04	2.75415
10.05	2.75316
10.06	2.73474
10.07	2.76172
10.08	2.7581
10.09	2.74033
10.1	2.76435
10.11	2.7752
10.12	2.76961
10.13	2.75382
10.14	2.75908
10.15	2.76862
10.16	2.7956
10.17	2.75152
10.18	2.75711
10.19	2.75382
10.2	2.77751
10.21	2.79988
10.22	2.7683
10.23	2.77487
10.24	2.75744
10.25	2.74724
10.26	2.79034
10.27	2.78836
10.28	2.76336
10.29	2.75283
10.3	2.75547
10.31	2.77356
10.32	2.76764
10.33	2.78507
10.34	2.75843
10.35	2.76369
10.36	2.78606
10.37	2.78211
10.38	2.80086
10.39	2.79889
10.4	2.78441
10.41	2.77652
10.42	2.77685
10.43	2.78836
10.44	2.76764
10.45	2.7854
10.46	2.80185
10.47	2.77224
10.48	2.77586
10.49	2.77455
10.5	2.76369
10.51	2.74856
10.52	2.77159
10.53	2.7581
10.54	2.77422
10.55	2.76895
10.56	2.77159
10.57	2.77553
10.58	2.77915
10.59	2.79889
10.6	2.77093
10.61	2.74658
10.62	2.75316
10.63	2.74987
10.64	2.77224
10.65	2.76073
10.66	2.7581
10.67	2.7581
10.68	2.7877
10.69	2.78145
10.7	2.74889
10.71	2.77553
10.72	2.78738
10.73	2.73639
10.74	2.78178
10.75	2.75711
10.76	2.7627
10.77	2.77455
10.78	2.74987
10.79	2.72783
10.8	2.77159
10.81	2.78738
10.82	2.75053
10.83	2.73343
10.84	2.72158
10.85	2.74231
10.86	2.76632
10.87	2.77718
10.88	2.75086
10.89	2.75876
10.9	2.76106
10.91	2.72158
10.92	2.74329
10.93	2.74757
10.94	2.75218
10.95	2.74724
10.96	2.76303
10.97	2.73244
10.98	2.76534
10.99	2.75053
11	2.76895
11.01	2.74757
11.02	2.77553
11.03	2.75711
11.04	2.76402
11.05	2.75382
11.06	2.77257
11.07	2.79099
11.08	2.74955
11.09	2.77685
11.1	2.76468
11.11	2.75547
11.12	2.76205
11.13	2.76303
11.14	2.75316
11.15	2.77027
11.16	2.7854
11.17	2.76172
11.18	2.75744
11.19	2.80251
11.2	2.75316
11.21	2.76073
11.22	2.74955
11.23	2.75645
11.24	2.76632
11.25	2.73935
11.26	2.74987
11.27	2.77586
11.28	2.79494
11.29	2.77882
11.3	2.76303
11.31	2.73079
11.32	2.7558
11.33	2.76665
11.34	2.75448
11.35	2.76007
11.36	2.74165
11.37	2.74658
11.38	2.75152
11.39	2.75382
11.4	2.76007
11.41	2.75612
11.42	2.75612
11.43	2.73408
11.44	2.75843
11.45	2.74823
11.46	2.79264
11.47	2.77422
11.48	2.79297
11.49	2.77981
11.5	2.76303
11.51	2.79659
11.52	2.76303
11.53	2.73902
11.54	2.74132
11.55	2.76007
11.56	2.7479
11.57	2.77224
11.58	2.75481
11.59	2.76961
11.6	2.74658
11.61	2.75547
11.62	2.75941
11.63	2.77323
11.64	2.75612
11.65	2.75777
11.66	2.74823
11.67	2.73968
11.68	2.75514
11.69	2.76139
11.7	2.76599
11.71	2.76928
11.72	2.77323
11.73	2.78573
11.74	2.77915
11.75	2.77981
11.76	2.75876
11.77	2.75908
11.78	2.76237
11.79	2.76599
11.8	2.7558
11.81	2.77915
11.82	2.75514
11.83	2.75843
11.84	2.76435
11.85	2.77487
11.86	2.77849
11.87	2.76303
11.88	2.77652
11.89	2.75645
11.9	2.78047
11.91	2.76862
11.92	2.79099
11.93	2.80382
11.94	2.78376
11.95	2.73145
11.96	2.75415
11.97	2.72981
11.98	2.73606
11.99	2.7831
12	2.76764
12.01	2.73836
12.02	2.7479
12.03	2.7706
12.04	2.78145
12.05	2.73803
12.06	2.7581
12.07	2.73112
12.08	2.77422
12.09	2.77553
12.1	2.78014
12.11	2.77685
12.12	2.74922
12.13	2.74987
12.14	2.73968
12.15	2.72586
12.16	2.76994
12.17	2.7581
12.18	2.73145
12.19	2.75251
12.2	2.74823
12.21	2.75185
12.22	2.74593
12.23	2.74395
12.24	2.75185
12.25	2.76435
12.26	2.75678
12.27	2.77586
12.28	2.76237
12.29	2.72093
12.3	2.73639
12.31	2.74724
12.32	2.74626
12.33	2.76599
12.34	2.75086
12.35	2.78441
12.36	2.77455
12.37	2.78145
12.38	2.74395
12.39	2.76402
12.4	2.76698
12.41	2.77751
12.42	2.75448
12.43	2.77257
12.44	2.72454
12.45	2.7502
12.46	2.77652
12.47	2.7456
12.48	2.75974
12.49	2.75678
12.5	2.73737
12.51	2.78014
12.52	2.76665
12.53	2.76303
12.54	2.76468
12.55	2.80119
12.56	2.78573
12.57	2.75119
12.58	2.75645
12.59	2.76928
12.6	2.7502
12.61	2.76073
12.62	2.73737
12.63	2.74658
12.64	2.75185
12.65	2.76632
12.66	2.74461
12.67	2.79066
12.68	2.74329
12.69	2.76073
12.7	2.75876
12.71	2.73178
12.72	2.73277
12.73	2.75415
12.74	2.71764
12.75	2.76566
12.76	2.78902
12.77	2.74099
12.78	2.74231
12.79	2.76007
12.8	2.73474
12.81	2.74757
12.82	2.78409
12.83	2.75908
12.84	2.7558
12.85	2.76402
12.86	2.75283
12.87	2.75547
12.88	2.76895
12.89	2.74922
12.9	2.74297
12.91	2.71007
12.92	2.73737
12.93	2.72224
12.94	2.76566
12.95	2.74987
12.96	2.76961
12.97	2.75415
12.98	2.74724
12.99	2.73079
13	2.74428
13.01	2.75053
13.02	2.73343
13.03	2.71632
13.04	2.71829
13.05	2.74823
13.06	2.76599
13.07	2.76402
13.08	2.77356
13.09	2.76632
13.1	2.74922
13.11	2.77224
13.12	2.7558
13.13	2.74099
13.14	2.7479
13.15	2.75514
13.16	2.76961
13.17	2.76139
13.18	2.7275
13.19	2.74626
13.2	2.7354
13.21	2.74658
13.22	2.75251
13.23	2.7627
13.24	2.73112
13.25	2.76731
13.26	2.72356
13.27	2.73672
13.28	2.7683
13.29	2.77882
13.3	2.73737
13.31	2.74428
13.32	2.74099
13.33	2.72718
13.34	2.71829
13.35	2.74757
13.36	2.7706
13.37	2.75908
13.38	2.75711
13.39	2.76764
13.4	2.79823
13.41	2.74461
13.42	2.70843
13.43	2.71073
13.44	2.74724
13.45	2.75119
13.46	2.75152
13.47	2.75185
13.48	2.80645
13.49	2.76566
13.5	2.76237
13.51	2.77356
13.52	2.76139
13.53	2.71764
13.54	2.75448
13.55	2.76534
13.56	2.74987
13.57	2.73441
13.58	2.75119
13.59	2.76895
13.6	2.77652
13.61	2.73244
13.62	2.71204
13.63	2.75941
13.64	2.7456
13.65	2.77948
13.66	2.78277
13.67	2.78211
13.68	2.76632
13.69	2.75843
13.7	2.75119
13.71	2.75316
13.72	2.74955
13.73	2.75876
13.74	2.78836
13.75	2.75843
13.76	2.74198
13.77	2.76237
13.78	2.7377
13.79	2.7127
13.8	2.76106
13.81	2.73343
13.82	2.74198
13.83	2.73112
13.84	2.73606
13.85	2.72257
13.86	2.71961
13.87	2.73672
13.88	2.72027
13.89	2.76007
13.9	2.76369
13.91	2.76106
13.92	2.76303
13.93	2.74955
13.94	2.7377
13.95	2.76468
13.96	2.75382
13.97	2.74297
13.98	2.74395
13.99	2.75185
14	2.76862
14.01	2.77685
14.02	2.74889
14.03	2.7581
14.04	2.76172
14.05	2.78244
14.06	2.75053
14.07	2.76994
14.08	2.75119
14.09	2.7729
14.1	2.75547
14.11	2.73606
14.12	2.75547
14.13	2.76731
14.14	2.75612
14.15	2.77816
14.16	2.75744
14.17	2.75777
14.18	2.7479
14.19	2.73968
14.2	2.75251
14.21	2.74527
14.22	2.74494
14.23	2.73343
14.24	2.77159
14.25	2.76994
14.26	2.7502
14.27	2.7604
14.28	2.76698
14.29	2.74889
14.3	2.76172
14.31	2.73079
14.32	2.7275
14.33	2.7377
14.34	2.7627
14.35	2.72487
14.36	2.7354
14.37	2.75974
14.38	2.75218
14.39	2.74132
14.4	2.7933
14.41	2.75448
14.42	2.74165
14.43	2.74658
14.44	2.76534
14.45	2.74658
14.46	2.75514
14.47	2.75974
14.48	2.72882
14.49	2.73211
14.5	2.75908
14.51	2.74724
14.52	2.7581
14.53	2.77159
14.54	2.75119
14.55	2.7377
14.56	2.72849
14.57	2.74922
14.58	2.74757
14.59	2.76797
14.6	2.72454
14.61	2.72093
14.62	2.71731
14.63	2.74955
14.64	2.75974
14.65	2.75415
14.66	2.73244
14.67	2.75777
14.68	2.78047
14.69	2.76928
14.7	2.75448
14.71	2.75086
14.72	2.72948
14.73	2.72619
14.74	2.76073
14.75	2.77553
14.76	2.76599
14.77	2.76106
14.78	2.75974
14.79	2.79297
14.8	2.73606
14.81	2.7456
14.82	2.7729
14.83	2.76994
14.84	2.71533
14.85	2.7354
14.86	2.75777
14.87	2.71829
14.88	2.75908
14.89	2.73178
14.9	2.74527
14.91	2.75119
14.92	2.73507
14.93	2.73014
14.94	2.73112
14.95	2.73112
14.96	2.73277
14.97	2.71533
14.98	2.74066
14.99	2.76862
15	2.72915
15.01	2.73145
15.02	2.74132
15.03	2.72389
15.04	2.72816
15.05	2.74724
15.06	2.76797
15.07	2.76205
15.08	2.74889
15.09	2.76599
15.1	2.73047
15.11	2.7252
15.12	2.76073
15.13	2.7275
15.14	2.73902
15.15	2.75843
15.16	2.76501
15.17	2.75744
15.18	2.7604
15.19	2.7479
15.2	2.72191
15.21	2.71961
15.22	2.75053
15.23	2.75086
15.24	2.76172
15.25	2.76501
15.26	2.74165
15.27	2.74132
15.28	2.7479
15.29	2.75678
15.3	2.77422
15.31	2.76534
15.32	2.75941
15.33	2.76797
15.34	2.73211
15.35	2.75415
15.36	2.75744
15.37	2.71829
15.38	2.75251
15.39	2.77816
15.4	2.73836
15.41	2.74889
15.42	2.73803
15.43	2.75119
15.44	2.73803
15.45	2.75185
15.46	2.73803
15.47	2.76369
15.48	2.77685
15.49	2.75547
15.5	2.7354
15.51	2.73836
15.52	2.75119
15.53	2.75908
15.54	2.73277
15.55	2.73507
15.56	2.74362
15.57	2.7456
15.58	2.75152
15.59	2.75974
15.6	2.7502
15.61	2.73178
15.62	2.73606
15.63	2.71862
15.64	2.72783
15.65	2.7377
15.66	2.76073
15.67	2.74231
15.68	2.74889
15.69	2.72487
15.7	2.76468
15.71	2.73902
15.72	2.70941
15.73	2.75152
15.74	2.7854
15.75	2.75283
15.76	2.76599
15.77	2.78606
15.78	2.77553
15.79	2.73507
15.8	2.75382
15.81	2.77356
15.82	2.74428
15.83	2.75218
15.84	2.72257
15.85	2.74428
15.86	2.73672
15.87	2.76139
15.88	2.75514
15.89	2.73343
15.9	2.72948
15.91	2.73902
15.92	2.76566
15.93	2.79066
15.94	2.75415
15.95	2.74955
15.96	2.74066
15.97	2.72422
15.98	2.72093
15.99	2.71599
16	2.76369
16.01	2.77323
16.02	2.74856
16.03	2.77586
16.04	2.75612
16.05	2.74856
16.06	2.72948
16.07	2.72093
16.08	2.73869
16.09	2.73968
16.1	2.71599
16.11	2.71402
16.12	2.72816
16.13	2.74264
16.14	2.75645
16.15	2.7558
16.16	2.70908
16.17	2.71073
16.18	2.74691
16.19	2.73606
16.2	2.75382
16.21	2.7627
16.22	2.75514
16.23	2.74231
16.24	2.75645
16.25	2.74527
16.26	2.74987
16.27	2.73178
16.28	2.75053
16.29	2.7627
16.3	2.74066
16.31	2.73836
16.32	2.74987
16.33	2.7581
16.34	2.75908
16.35	2.75514
16.36	2.74329
16.37	2.7479
16.38	2.72816
16.39	2.76435
16.4	2.73639
16.41	2.76402
16.42	2.76106
16.43	2.7331
16.44	2.76435
16.45	2.75251
16.46	2.75678
16.47	2.73376
16.48	2.73672
16.49	2.73178
16.5	2.76599
16.51	2.73145
16.52	2.72389
16.53	2.73704
16.54	2.75678
16.55	2.77356
16.56	2.74231
16.57	2.72685
16.58	2.74658
16.59	2.74395
16.6	2.74395
16.61	2.73737
16.62	2.72454
16.63	2.73639
16.64	2.73737
16.65	2.73869
16.66	2.74527
16.67	2.75547
16.68	2.74001
16.69	2.75481
16.7	2.74757
16.71	2.76435
16.72	2.74428
16.73	2.75711
16.74	2.72356
16.75	2.75415
16.76	2.75218
16.77	2.76237
16.78	2.72882
16.79	2.74066
16.8	2.73639
16.81	2.71698
16.82	2.72718
16.83	2.75744
16.84	2.73672
16.85	2.7479
16.86	2.76007
16.87	2.74856
16.88	2.74724
16.89	2.73277
16.9	2.74955
16.91	2.75415
16.92	2.77422
16.93	2.75415
16.94	2.77356
16.95	2.72619
16.96	2.73178
16.97	2.73112
16.98	2.74362
16.99	2.76369
17	2.78014
17.01	2.78968
17.02	2.77257
17.03	2.72915
17.04	2.76303
17.05	2.76106
17.06	2.73178
17.07	2.73737
17.08	2.75251
17.09	2.73507
17.1	2.71994
17.11	2.72718
17.12	2.72093
17.13	2.74395
17.14	2.75448
17.15	2.76632
17.16	2.76961
17.17	2.7502
17.18	2.73737
17.19	2.74165
17.2	2.74691
17.21	2.76007
17.22	2.74691
17.23	2.74428
17.24	2.68836
17.25	2.71468
17.26	2.7206
17.27	2.74362
17.28	2.72948
17.29	2.72487
17.3	2.73376
17.31	2.73211
17.32	2.76928
17.33	2.74955
17.34	2.77356
17.35	2.75152
17.36	2.74987
17.37	2.72356
17.38	2.73573
17.39	2.7604
17.4	2.75711
17.41	2.74626
17.42	2.71928
17.43	2.72849
17.44	2.76862
17.45	2.74626
17.46	2.72487
17.47	2.71566
17.48	2.72685
17.49	2.72125
17.5	2.73704
17.51	2.72158
17.52	2.71764
17.53	2.71369
17.54	2.72948
17.55	2.76632
17.56	2.72816
17.57	2.71435
17.58	2.73474
17.59	2.76237
17.6	2.74724
17.61	2.7627
17.62	2.76468
17.63	2.75316
17.64	2.71402
17.65	2.74001
17.66	2.78869
17.67	2.75777
17.68	2.75053
17.69	2.74823
17.7	2.74856
17.71	2.7808
17.72	2.74099
17.73	2.73836
17.74	2.73047
17.75	2.72487
17.76	2.7127
17.77	2.73573
17.78	2.71237
17.79	2.74658
17.8	2.76106
17.81	2.73672
17.82	2.74198
17.83	2.72948
17.84	2.72027
17.85	2.75382
17.86	2.76106
17.87	2.72849
17.88	2.7002
17.89	2.73507
17.9	2.73474
17.91	2.73836
17.92	2.72619
17.93	2.7581
17.94	2.7558
17.95	2.71928
17.96	2.74856
17.97	2.74231
17.98	2.7627
17.99	2.77882
18	2.74593
18.01	2.7558
18.02	2.75251
18.03	2.75612
18.04	2.75481
18.05	2.73211
18.06	2.73968
18.07	2.75448
18.08	2.76764
18.09	2.75645
18.1	2.73211
18.11	2.73968
18.12	2.74856
18.13	2.73047
18.14	2.74922
18.15	2.72487
18.16	2.72619
18.17	2.7877
18.18	2.76172
18.19	2.75283
18.2	2.7377
18.21	2.72816
18.22	2.72422
18.23	2.7331
18.24	2.72718
18.25	2.73244
18.26	2.75974
18.27	2.74001
18.28	2.75086
18.29	2.75744
18.3	2.76566
18.31	2.76106
18.32	2.72882
18.33	2.74001
18.34	2.75316
18.35	2.75777
18.36	2.74362
18.37	2.75283
18.38	2.7456
18.39	2.7252
18.4	2.72356
18.41	2.73606
18.42	2.71468
18.43	2.7229
18.44	2.72422
18.45	2.7275
18.46	2.74757
18.47	2.72882
18.48	2.73112
18.49	2.76237
18.5	2.74626
18.51	2.70218
18.52	2.72915
18.53	2.76468
18.54	2.76303
18.55	2.76994
18.56	2.74329
18.57	2.7354
18.58	2.7377
18.59	2.77027
18.6	2.73145
18.61	2.7229
18.62	2.74626
18.63	2.72981
18.64	2.76402
18.65	2.74658
18.66	2.76106
18.67	2.74922
18.68	2.75382
18.69	2.73573
18.7	2.75711
18.71	2.77784
18.72	2.74527
18.73	2.74231
18.74	2.74593
18.75	2.74724
18.76	2.74428
18.77	2.75908
18.78	2.73244
18.79	2.74593
18.8	2.74461
18.81	2.73376
18.82	2.73672
18.83	2.73277
18.84	2.76073
18.85	2.73803
18.86	2.73211
18.87	2.74066
18.88	2.73178
18.89	2.7456
18.9	2.7729
18.91	2.73145
18.92	2.72093
18.93	2.7502
18.94	2.7558
18.95	2.7604
18.96	2.73408
18.97	2.75908
18.98	2.74757
18.99	2.73836
19	2.75941
19.01	2.73902
19.02	2.76665
19.03	2.72027
19.04	2.72158
19.05	2.73803
19.06	2.74099
19.07	2.77224
19.08	2.75349
19.09	2.75974
19.1	2.74593
19.11	2.75974
19.12	2.7604
19.13	2.74066
19.14	2.74001
19.15	2.75218
19.16	2.76007
19.17	2.74066
19.18	2.75283
19.19	2.74198
19.2	2.74231
19.21	2.75908
19.22	2.73968
19.23	2.75974
19.24	2.7729
19.25	2.72027
19.26	2.70579
19.27	2.72389
19.28	2.71106
19.29	2.73836
19.3	2.7479
19.31	2.73277
19.32	2.74626
19.33	2.73079
19.34	2.73968
19.35	2.74461
19.36	2.75382
19.37	2.75941
19.38	2.7581
19.39	2.7252
19.4	2.72454
19.41	2.72783
19.42	2.74297
19.43	2.76599
19.44	2.74001
19.45	2.7229
19.46	2.77685
19.47	2.75053
19.48	2.78014
19.49	2.75152
19.5	2.74527
19.51	2.75316
19.52	2.72487
19.53	2.75349
19.54	2.73014
19.55	2.73737
19.56	2.73507
19.57	2.72027
19.58	2.75119
19.59	2.7808
19.6	2.76862
19.61	2.72783
19.62	2.76632
19.63	2.75086
19.64	2.72981
19.65	2.71698
19.66	2.75678
19.67	2.76106
19.68	2.74889
19.69	2.77915
19.7	2.78277
19.71	2.75941
19.72	2.75876
19.73	2.74001
19.74	2.76369
19.75	2.74395
19.76	2.73606
19.77	2.75185
19.78	2.72224
19.79	2.74001
19.8	2.74428
19.81	2.7456
19.82	2.73639
19.83	2.74987
19.84	2.73737
19.85	2.75382
19.86	2.74494
19.87	2.76303
19.88	2.75415
19.89	2.73211
19.9	2.75218
19.91	2.74955
19.92	2.73507
19.93	2.70908
19.94	2.73639
19.95	2.73573
19.96	2.75053
19.97	2.75218
19.98	2.7627
19.99	2.74987
20	2.73836
20.01	2.74823
20.02	2.73178
20.03	2.73079
20.04	2.73507
20.05	2.72553
20.06	2.72586
20.07	2.72389
20.08	2.73079
20.09	2.73408
20.1	2.72718
20.11	2.71829
20.12	2.69395
20.13	2.71073
20.14	2.69625
20.15	2.72323
20.16	2.74395
20.17	2.75152
20.18	2.72191
20.19	2.71073
20.2	2.71402
20.21	2.72422
20.22	2.71139
20.23	2.73277
20.24	2.71862
20.25	2.76205
20.26	2.76566
20.27	2.7275
20.28	2.71928
20.29	2.72849
20.3	2.74461
20.31	2.72093
20.32	2.74099
20.33	2.73507
20.34	2.75349
20.35	2.74658
20.36	2.71468
20.37	2.71632
20.38	2.74593
20.39	2.75382
20.4	2.73968
20.41	2.7502
20.42	2.74757
20.43	2.71928
20.44	2.74626
20.45	2.71829
20.46	2.73606
20.47	2.75086
20.48	2.73737
20.49	2.71665
20.5	2.73112
20.51	2.7502
20.52	2.73869
20.53	2.7377
20.54	2.73737
20.55	2.7377
20.56	2.73737
20.57	2.74691
20.58	2.76402
20.59	2.75218
20.6	2.75086
20.61	2.75711
20.62	2.74955
20.63	2.75119
20.64	2.76435
20.65	2.76303
20.66	2.73836
20.67	2.76139
20.68	2.75974
20.69	2.72849
20.7	2.73704
20.71	2.72948
20.72	2.73145
20.73	2.73507
20.74	2.73145
20.75	2.74987
20.76	2.76303
20.77	2.75514
20.78	2.74362
20.79	2.73441
20.8	2.73014
20.81	2.72619
20.82	2.72257
20.83	2.73408
20.84	2.72783
20.85	2.75185
20.86	2.74593
20.87	2.73408
20.88	2.72718
20.89	2.74231
20.9	2.71764
20.91	2.72981
20.92	2.74099
20.93	2.7479
20.94	2.71139
20.95	2.68474
20.96	2.7104
20.97	2.73178
20.98	2.74593
20.99	2.70645
21	2.71303
21.01	2.75283
21.02	2.7252
21.03	2.71797
21.04	2.77455
21.05	2.77422
21.06	2.73639
21.07	2.75415
21.08	2.71533
21.09	2.73376
21.1	2.72323
21.11	2.74165
21.12	2.73244
21.13	2.73737
21.14	2.69592
21.15	2.70777
21.16	2.71435
21.17	2.74955
21.18	2.74428
21.19	2.74856
21.2	2.74428
21.21	2.72422
21.22	2.75382
21.23	2.72981
21.24	2.7275
21.25	2.75349
21.26	2.73869
21.27	2.74297
21.28	2.76073
21.29	2.73145
21.3	2.7377
21.31	2.7377
21.32	2.72685
21.33	2.73145
21.34	2.74461
21.35	2.73704
21.36	2.75678
21.37	2.74033
21.38	2.73902
21.39	2.75974
21.4	2.71829
21.41	2.71829
21.42	2.71336
21.43	2.72191
21.44	2.69264
21.45	2.72257
21.46	2.75283
21.47	2.73343
21.48	2.76764
21.49	2.72257
21.5	2.72915
21.51	2.74856
21.52	2.7604
21.53	2.72125
21.54	2.7479
21.55	2.73376
21.56	2.7502
21.57	2.72454
21.58	2.73639
21.59	2.74329
21.6	2.75612
21.61	2.74724
21.62	2.73474
21.63	2.74461
21.64	2.73047
21.65	2.75547
21.66	2.72783
21.67	2.75218
21.68	2.75744
21.69	2.75514
21.7	2.73507
21.71	2.75876
21.72	2.75645
21.73	2.72948
21.74	2.73343
21.75	2.74428
21.76	2.73902
21.77	2.73079
21.78	2.74724
21.79	2.73277
21.8	2.74823
21.81	2.71961
21.82	2.72882
21.83	2.74362
21.84	2.73606
21.85	2.75974
21.86	2.75349
21.87	2.74626
21.88	2.74264
21.89	2.71468
21.9	2.715
21.91	2.74362
21.92	2.73145
21.93	2.74823
21.94	2.73178
21.95	2.75974
21.96	2.74856
21.97	2.72093
21.98	2.7229
21.99	2.74395
22	2.74658
22.01	2.74231
22.02	2.72323
22.03	2.72783
22.04	2.73277
22.05	2.71435
22.06	2.71961
22.07	2.73408
22.08	2.71007
22.09	2.70119
22.1	2.74297
22.11	2.74132
22.12	2.72487
22.13	2.7502
22.14	2.74724
22.15	2.71171
22.16	2.75514
22.17	2.76007
22.18	2.74198
22.19	2.73474
22.2	2.75941
22.21	2.75316
22.22	2.74494
22.23	2.73639
22.24	2.73672
22.25	2.72816
22.26	2.73408
22.27	2.74823
22.28	2.73639
22.29	2.73639
22.3	2.72027
22.31	2.72783
22.32	2.76106
22.33	2.73376
22.34	2.70908
22.35	2.71369
22.36	2.72191
22.37	2.71797
22.38	2.72257
22.39	2.74395
22.4	2.72586
22.41	2.74823
22.42	2.74955
22.43	2.76928
22.44	2.7354
22.45	2.72619
22.46	2.73343
22.47	2.71369
22.48	2.7275
22.49	2.73112
22.5	2.7002
22.51	2.72783
22.52	2.76698
22.53	2.76862
22.54	2.74231
22.55	2.75547
22.56	2.75908
22.57	2.76369
22.58	2.7206
22.59	2.73902
22.6	2.69395
22.61	2.73672
22.62	2.75119
22.63	2.74264
22.64	2.77389
22.65	2.76862
22.66	2.74264
22.67	2.72915
22.68	2.72224
22.69	2.74987
22.7	2.75612
22.71	2.74132
22.72	2.73704
22.73	2.76369
22.74	2.74099
22.75	2.75283
22.76	2.73507
22.77	2.73441
22.78	2.72586
22.79	2.70974
22.8	2.71533
22.81	2.71303
22.82	2.73606
22.83	2.74001
22.84	2.71632
22.85	2.73507
22.86	2.73343
22.87	2.74494
22.88	2.72487
22.89	2.72389
22.9	2.7104
22.91	2.75448
22.92	2.7683
22.93	2.73211
22.94	2.74757
22.95	2.76632
22.96	2.76501
22.97	2.75283
22.98	2.73244
22.99	2.72487
23	2.74428
23.01	2.72093
23.02	2.71204
23.03	2.74132
23.04	2.73836
23.05	2.72849
23.06	2.70941
23.07	2.7331
23.08	2.74889
23.09	2.73211
23.1	2.73507
23.11	2.7456
23.12	2.72685
23.13	2.75744
23.14	2.73343
23.15	2.72158
23.16	2.75514
23.17	2.72652
23.18	2.74658
23.19	2.715
23.2	2.7252
23.21	2.7627
23.22	2.73704
23.23	2.73573
23.24	2.72553
23.25	2.70843
23.26	2.74165
23.27	2.74362
23.28	2.73441
23.29	2.69296
23.3	2.72816
23.31	2.72093
23.32	2.72257
23.33	2.75119
23.34	2.73573
23.35	2.74658
23.36	2.73968
23.37	2.7331
23.38	2.73507
23.39	2.74033
23.4	2.72158
23.41	2.73737
23.42	2.73639
23.43	2.7104
23.44	2.7377
23.45	2.73343
23.46	2.74198
23.47	2.74889
23.48	2.70843
23.49	2.72125
23.5	2.73014
23.51	2.7558
23.52	2.76862
23.53	2.73507
23.54	2.71928
23.55	2.75283
23.56	2.72619
23.57	2.73408
23.58	2.73507
23.59	2.73737
23.6	2.71928
23.61	2.72816
23.62	2.715
23.63	2.72685
23.64	2.74231
23.65	2.75382
23.66	2.74198
23.67	2.73639
23.68	2.7081
23.69	2.73112
23.7	2.73639
23.71	2.73376
23.72	2.72027
23.73	2.71402
23.74	2.73343
23.75	2.74362
23.76	2.73639
23.77	2.72027
23.78	2.72323
23.79	2.75744
23.8	2.73507
23.81	2.75218
23.82	2.72882
23.83	2.74231
23.84	2.74231
23.85	2.72816
23.86	2.71369
23.87	2.73014
23.88	2.7275
23.89	2.72882
23.9	2.75448
23.91	2.73639
23.92	2.7456
23.93	2.70349
23.94	2.73672
23.95	2.73145
23.96	2.75974
23.97	2.74889
23.98	2.73968
23.99	2.75119
24	2.73211
24.01	2.71402
24.02	2.69231
24.03	2.7206
24.04	2.69724
24.05	2.73704
24.06	2.76731
24.07	2.74198
24.08	2.74395
24.09	2.73112
24.1	2.7377
24.11	2.75349
24.12	2.73935
24.13	2.73803
24.14	2.72356
24.15	2.72685
24.16	2.74033
24.17	2.75053
24.18	2.73112
24.19	2.70086
24.2	2.70283
24.21	2.70843
24.22	2.73672
24.23	2.7252
24.24	2.7729
24.25	2.75876
24.26	2.71435
24.27	2.71928
24.28	2.76961
24.29	2.74691
24.3	2.72915
24.31	2.76764
24.32	2.75218
24.33	2.71139
24.34	2.6979
24.35	2.73573
24.36	2.7354
24.37	2.77257
24.38	2.75876
24.39	2.75218
24.4	2.74922
24.41	2.73507
24.42	2.79494
24.43	2.78441
24.44	2.7331
24.45	2.70941
24.46	2.7558
24.47	2.75382
24.48	2.71533
24.49	2.74395
24.5	2.74724
24.51	2.74066
24.52	2.71171
24.53	2.74626
24.54	2.73376
24.55	2.7331
24.56	2.74033
24.57	2.72849
24.58	2.75218
24.59	2.73277
24.6	2.73869
24.61	2.70908
24.62	2.7252
24.63	2.72125
24.64	2.70415
24.65	2.7104
24.66	2.72323
24.67	2.74198
24.68	2.74066
24.69	2.7229
24.7	2.72422
24.71	2.71007
24.72	2.74428
24.73	2.72882
24.74	2.73145
24.75	2.74955
24.76	2.74856
24.77	2.73277
24.78	2.73047
24.79	2.73178
24.8	2.72125
24.81	2.75744
24.82	2.75218
24.83	2.73803
24.84	2.73935
24.85	2.7604
24.86	2.73836
24.87	2.72027
24.88	2.76205
24.89	2.7127
24.9	2.72487
24.91	2.72027
24.92	2.72093
24.93	2.74691
24.94	2.74955
24.95	2.72323
24.96	2.73836
24.97	2.73343
24.98	2.73573
24.99	2.72323
25	2.71402
25.01	2.73869
25.02	2.72158
25.03	2.7206
25.04	2.73704
25.05	2.76468
25.06	2.72816
25.07	2.71369
25.08	2.70119
25.09	2.7275
25.1	2.75481
25.11	2.72619
25.12	2.73639
25.13	2.71895
25.14	2.74987
25.15	2.72685
25.16	2.74527
25.17	2.75086
25.18	2.73343
25.19	2.72257
25.2	2.7206
25.21	2.73935
25.22	2.71895
25.23	2.73869
25.24	2.74428
25.25	2.69658
25.26	2.73244
25.27	2.75547
25.28	2.7252
25.29	2.73079
25.3	2.73145
25.31	2.76435
25.32	2.73968
25.33	2.74132
25.34	2.73836
25.35	2.72849
25.36	2.71797
25.37	2.71566
25.38	2.72652
25.39	2.72849
25.4	2.73968
25.41	2.70645
25.42	2.71665
25.43	2.74066
25.44	2.72849
25.45	2.73869
25.46	2.74889
25.47	2.75908
25.48	2.73836
25.49	2.70448
25.5	2.76007
25.51	2.75777
25.52	2.74658
25.53	2.74889
25.54	2.74922
25.55	2.75283
25.56	2.70777
25.57	2.73047
25.58	2.69461
25.59	2.69691
25.6	2.73836
25.61	2.72487
25.62	2.74889
25.63	2.74395
25.64	2.73803
25.65	2.70514
25.66	2.69165
25.67	2.74527
25.68	2.72422
25.69	2.7275
25.7	2.73474
25.71	2.73935
25.72	2.74198
25.73	2.77455
25.74	2.70579
25.75	2.7104
25.76	2.72915
25.77	2.73474
25.78	2.73145
25.79	2.71829
25.8	2.70678
25.81	2.73244
25.82	2.73639
25.83	2.72553
25.84	2.7377
25.85	2.74527
25.86	2.75415
25.87	2.73079
25.88	2.72093
25.89	2.7354
25.9	2.73737
25.91	2.73474
25.92	2.73145
25.93	2.73573
25.94	2.73178
25.95	2.6979
25.96	2.73014
25.97	2.70579
25.98	2.72718
25.99	2.75744
26	2.75547
26.01	2.70777
26.02	2.72389
26.03	2.74132
26.04	2.73211
26.05	2.73112
26.06	2.74033
26.07	2.74033
26.08	2.72685
26.09	2.71171
26.1	2.72125
26.11	2.75185
26.12	2.70218
26.13	2.73145
26.14	2.73902
26.15	2.75415
26.16	2.74691
26.17	2.72422
26.18	2.74922
26.19	2.73968
26.2	2.70349
26.21	2.72948
26.22	2.72915
26.23	2.73803
26.24	2.76632
26.25	2.74987
26.26	2.75777
26.27	2.73968
26.28	2.71237
26.29	2.76501
26.3	2.72652
26.31	2.74626
26.32	2.72323
26.33	2.70448
26.34	2.72125
26.35	2.72158
26.36	2.71533
26.37	2.73211
26.38	2.74033
26.39	2.72783
26.4	2.74297
26.41	2.73079
26.42	2.73902
26.43	2.7604
26.44	2.76336
26.45	2.73343
26.46	2.72981
26.47	2.73441
26.48	2.71895
26.49	2.72191
26.5	2.74132
26.51	2.75547
26.52	2.75941
26.53	2.77816
26.54	2.7479
26.55	2.75514
26.56	2.74099
26.57	2.74066
26.58	2.73145
26.59	2.72882
26.6	2.72224
26.61	2.73079
26.62	2.70875
26.63	2.73507
26.64	2.71073
26.65	2.73079
26.66	2.71435
26.67	2.75711
26.68	2.74033
26.69	2.72652
26.7	2.74922
26.71	2.69527
26.72	2.71731
26.73	2.72356
26.74	2.72257
26.75	2.71336
26.76	2.74395
26.77	2.71928
26.78	2.7275
26.79	2.72158
26.8	2.72783
26.81	2.71533
26.82	2.71106
26.83	2.72323
26.84	2.73244
26.85	2.74856
26.86	2.75843
26.87	2.73639
26.88	2.73211
26.89	2.72619
26.9	2.7025
26.91	2.72093
26.92	2.74922
26.93	2.7229
26.94	2.73441
26.95	2.73014
26.96	2.73211
26.97	2.73112
26.98	2.74297
26.99	2.75053
27	2.74066
27.01	2.75908
27.02	2.71468
27.03	2.72454
27.04	2.74066
27.05	2.74856
27.06	2.72619
27.07	2.74198
27.08	2.71632
27.09	2.72323
27.1	2.71533
27.11	2.73408
27.12	2.73178
27.13	2.75415
27.14	2.73935
27.15	2.74428
27.16	2.72257
27.17	2.79034
27.18	2.7479
27.19	2.73968
27.2	2.74231
27.21	2.72915
27.22	2.74955
27.23	2.73343
27.24	2.75086
27.25	2.72685
27.26	2.71303
27.27	2.72191
27.28	2.75152
27.29	2.73244
27.3	2.73902
27.31	2.74494
27.32	2.72027
27.33	2.72685
27.34	2.73145
27.35	2.72619
27.36	2.74856
27.37	2.73145
27.38	2.73507
27.39	2.72158
27.4	2.71566
27.41	2.72356
27.42	2.75218
27.43	2.74198
27.44	2.7229
27.45	2.71698
27.46	2.74395
27.47	2.77323
27.48	2.7558
27.49	2.74428
27.5	2.72685
27.51	2.72257
27.52	2.7502
27.53	2.73244
27.54	2.71369
27.55	2.74099
27.56	2.75316
27.57	2.74461
27.58	2.70185
27.59	2.73902
27.6	2.72323
27.61	2.75185
27.62	2.71303
27.63	2.70514
27.64	2.70908
27.65	2.74395
27.66	2.73211
27.67	2.75514
27.68	2.73606
27.69	2.74066
27.7	2.71369
27.71	2.71566
27.72	2.74494
27.73	2.74922
27.74	2.74955
27.75	2.75251
27.76	2.72619
27.77	2.7558
27.78	2.70086
27.79	2.72487
27.8	2.73737
27.81	2.73573
27.82	2.77356
27.83	2.75908
27.84	2.7354
27.85	2.7206
27.86	2.72816
27.87	2.72356
27.88	2.70579
27.89	2.73079
27.9	2.7354
27.91	2.74658
27.92	2.74132
27.93	2.74461
27.94	2.73112
27.95	2.74066
27.96	2.71468
27.97	2.72652
27.98	2.7275
27.99	2.72257
28	2.70678
28.01	2.70283
28.02	2.71171
28.03	2.73474
28.04	2.74395
28.05	2.70711
28.06	2.72487
28.07	2.72948
28.08	2.72586
28.09	2.72224
28.1	2.71106
28.11	2.72224
28.12	2.73606
28.13	2.7377
28.14	2.73112
28.15	2.7252
28.16	2.72422
28.17	2.71402
28.18	2.73836
28.19	2.72027
28.2	2.73474
28.21	2.74066
28.22	2.71994
28.23	2.75974
28.24	2.73968
28.25	2.69823
28.26	2.73014
28.27	2.75185
28.28	2.72323
28.29	2.71566
28.3	2.72257
28.31	2.74494
28.32	2.74461
28.33	2.70777
28.34	2.70152
28.35	2.71533
28.36	2.71632
28.37	2.72586
28.38	2.72422
28.39	2.76073
28.4	2.75744
28.41	2.72816
28.42	2.7002
28.43	2.72323
28.44	2.71468
28.45	2.72389
28.46	2.70218
28.47	2.72783
28.48	2.73244
28.49	2.70678
28.5	2.71862
28.51	2.76895
28.52	2.72915
28.53	2.72783
28.54	2.7377
28.55	2.7377
28.56	2.73902
28.57	2.7127
28.58	2.74362
28.59	2.73474
28.6	2.70382
28.61	2.69
28.62	2.71369
28.63	2.69987
28.64	2.7354
28.65	2.75448
28.66	2.73902
28.67	2.71698
28.68	2.70612
28.69	2.73145
28.7	2.71369
28.71	2.72783
28.72	2.74297
28.73	2.73704
28.74	2.73277
28.75	2.73376
28.76	2.71731
28.77	2.71764
28.78	2.74922
28.79	2.75481
28.8	2.72882
28.81	2.72783
28.82	2.7229
28.83	2.71665
28.84	2.75678
28.85	2.73836
28.86	2.73079
28.87	2.74231
28.88	2.76303
28.89	2.76402
28.9	2.75283
28.91	2.75514
28.92	2.74658
28.93	2.74757
28.94	2.71007
28.95	2.75711
28.96	2.71204
28.97	2.73211
28.98	2.72356
28.99	2.71237
29	2.73244
29.01	2.72422
29.02	2.72422
29.03	2.74593
29.04	2.77126
29.05	2.76961
29.06	2.7127
29.07	2.72948
29.08	2.71073
29.09	2.71369
29.1	2.75349
29.11	2.75612
29.12	2.72093
29.13	2.70843
29.14	2.71237
29.15	2.74658
29.16	2.73277
29.17	2.68967
29.18	2.76665
29.19	2.73408
29.2	2.71336
29.21	2.76862
29.22	2.75086
29.23	2.73178
29.24	2.71007
29.25	2.73441
29.26	2.72849
29.27	2.71599
29.28	2.72389
29.29	2.72882
29.3	2.74099
29.31	2.72257
29.32	2.74593
29.33	2.76336
29.34	2.73935
29.35	2.69856
29.36	2.68375
29.37	2.72718
29.38	2.71204
29.39	2.70514
29.4	2.69658
29.41	2.68211
29.42	2.74099
29.43	2.72685
29.44	2.71994
29.45	2.74724
29.46	2.74001
29.47	2.73507
29.48	2.74001
29.49	2.76468
29.5	2.76007
29.51	2.74231
29.52	2.73704
29.53	2.73014
29.54	2.73211
29.55	2.72125
29.56	2.70843
29.57	2.69856
29.58	2.74165
29.59	2.73178
29.6	2.72389
29.61	2.72191
29.62	2.7558
29.63	2.75514
29.64	2.74987
29.65	2.73935
29.66	2.76303
29.67	2.75119
29.68	2.72783
29.69	2.74922
29.7	2.74823
29.71	2.71435
29.72	2.72125
29.73	2.71862
29.74	2.73902
29.75	2.74626
29.76	2.72652
29.77	2.75415
29.78	2.75547
29.79	2.72125
29.8	2.72915
29.81	2.71139
29.82	2.72389
29.83	2.73441
29.84	2.73145
29.85	2.7252
29.86	2.73277
29.87	2.73211
29.88	2.71797
29.89	2.73014
29.9	2.72948
29.91	2.72191
29.92	2.71994
29.93	2.71468
29.94	2.71468
29.95	2.74198
29.96	2.74987
29.97	2.72356
29.98	2.73145
29.99	2.73178
30	2.69987
30.01	2.72454
30.02	2.74494
30.03	2.73737
30.04	2.74297
30.05	2.73211
30.06	2.74231
30.07	2.73704
30.08	2.72487
30.09	2.7104
30.1	2.71764
30.11	2.70086
30.12	2.73704
30.13	2.7002
30.14	2.71698
30.15	2.74428
30.16	2.73803
30.17	2.7377
30.18	2.71961
30.19	2.73737
30.2	2.70579
30.21	2.70481
30.22	2.70744
30.23	2.69823
30.24	2.71007
30.25	2.75744
30.26	2.75645
30.27	2.71797
30.28	2.67685
30.29	2.6956
30.3	2.72619
30.31	2.70053
30.32	2.73507
30.33	2.75547
30.34	2.72619
30.35	2.72783
30.36	2.73704
30.37	2.72718
30.38	2.7627
30.39	2.75218
30.4	2.69954
30.41	2.71961
30.42	2.71731
30.43	2.7502
30.44	2.74461
30.45	2.74132
30.46	2.71797
30.47	2.72093
30.48	2.75777
30.49	2.70744
30.5	2.70349
30.51	2.71073
30.52	2.70579
30.53	2.70974
30.54	2.73178
30.55	2.72882
30.56	2.71895
30.57	2.72718
30.58	2.73836
30.59	2.71402
30.6	2.69987
30.61	2.71237
30.62	2.72652
30.63	2.72882
30.64	2.73343
30.65	2.74428
30.66	2.73343
30.67	2.72422
30.68	2.74099
30.69	2.77487
30.7	2.73672
30.71	2.75744
30.72	2.71237
30.73	2.73507
30.74	2.72356
30.75	2.72454
30.76	2.72783
30.77	2.70908
30.78	2.7558
30.79	2.71961
30.8	2.70579
30.81	2.7354
30.82	2.7127
30.83	2.7104
30.84	2.7081
30.85	2.74658
30.86	2.73935
30.87	2.7479
30.88	2.70415
30.89	2.71632
30.9	2.74033
30.91	2.73474
30.92	2.73343
30.93	2.71139
30.94	2.71171
30.95	2.7275
30.96	2.70941
30.97	2.70645
30.98	2.70415
30.99	2.69954
31	2.72454
31.01	2.70908
31.02	2.72718
31.03	2.71566
31.04	2.7229
31.05	2.72849
31.06	2.72816
31.07	2.7558
31.08	2.73376
31.09	2.70053
31.1	2.73968
31.11	2.68935
31.12	2.71928
31.13	2.73803
31.14	2.74231
31.15	2.71468
31.16	2.74099
31.17	2.74658
31.18	2.73606
31.19	2.7377
31.2	2.70218
31.21	2.74987
31.22	2.73606
31.23	2.73014
31.24	2.74428
31.25	2.71829
31.26	2.73014
31.27	2.74132
31.28	2.72454
31.29	2.73737
31.3	2.74955
31.31	2.71599
31.32	2.71435
31.33	2.72422
31.34	2.72718
31.35	2.72224
31.36	2.75481
31.37	2.74099
31.38	2.73672
31.39	2.72191
31.4	2.75382
31.41	2.76336
31.42	2.76961
31.43	2.74987
31.44	2.69
31.45	2.73014
31.46	2.71237
31.47	2.75382
31.48	2.75777
31.49	2.74922
31.5	2.74198
31.51	2.75744
31.52	2.74494
31.53	2.77027
31.54	2.73935
31.55	2.74033
31.56	2.75448
31.57	2.72191
31.58	2.74626
31.59	2.75119
31.6	2.76764
31.61	2.74099
31.62	2.74658
31.63	2.74362
31.64	2.74165
31.65	2.71599
31.66	2.73869
31.67	2.74198
31.68	2.72586
31.69	2.71632
31.7	2.73112
31.71	2.7081
31.72	2.74593
31.73	2.76237
31.74	2.74593
31.75	2.75514
31.76	2.74856
31.77	2.71895
31.78	2.7331
31.79	2.74066
31.8	2.73968
31.81	2.73343
31.82	2.7377
31.83	2.71237
31.84	2.72816
31.85	2.72158
31.86	2.71369
31.87	2.73573
31.88	2.72323
31.89	2.75645
31.9	2.74658
31.91	2.72454
31.92	2.7275
31.93	2.73145
31.94	2.71139
31.95	2.70152
31.96	2.74626
31.97	2.71994
31.98	2.73014
31.99	2.72619
32	2.74428
32.01	2.74955
32.02	2.77981
32.03	2.78836
32.04	2.7706
32.05	2.72191
32.06	2.71402
32.07	2.71237
32.08	2.68573
32.09	2.74329
32.1	2.74889
32.11	2.715
32.12	2.73672
32.13	2.73902
32.14	2.72553
32.15	2.72257
32.16	2.72816
32.17	2.74428
32.18	2.72948
32.19	2.71303
32.2	2.74987
32.21	2.7206
32.22	2.73408
32.23	2.72619
32.24	2.7229
32.25	2.73902
32.26	2.70744
32.27	2.70283
32.28	2.7229
32.29	2.74626
32.3	2.73343
32.31	2.73376
32.32	2.73145
32.33	2.70514
32.34	2.73441
32.35	2.71303
32.36	2.70185
32.37	2.74099
32.38	2.74099
32.39	2.69264
32.4	2.73277
32.41	2.74658
32.42	2.7502
32.43	2.7558
32.44	2.73639
32.45	2.69264
32.46	2.70908
32.47	2.74099
32.48	2.74987
32.49	2.77159
32.5	2.73244
32.51	2.74494
32.52	2.74626
32.53	2.73211
32.54	2.73047
32.55	2.73145
32.56	2.74099
32.57	2.74494
32.58	2.70514
32.59	2.71007
32.6	2.73606
32.61	2.7479
32.62	2.72158
32.63	2.76205
32.64	2.73507
32.65	2.71007
32.66	2.74033
32.67	2.69231
32.68	2.70777
32.69	2.75448
32.7	2.76369
32.71	2.7479
32.72	2.70908
32.73	2.74231
32.74	2.7627
32.75	2.75547
32.76	2.75876
32.77	2.73244
32.78	2.70645
32.79	2.7275
32.8	2.70119
32.81	2.67717
32.82	2.71073
32.83	2.71895
32.84	2.73244
32.85	2.7081
32.86	2.70514
32.87	2.74757
32.88	2.76961
32.89	2.75908
32.9	2.75415
32.91	2.74856
32.92	2.71237
32.93	2.73408
32.94	2.74626
32.95	2.75349
32.96	2.69658
32.97	2.71829
32.98	2.7502
32.99	2.73112
33	2.7252
33.01	2.715
33.02	2.73376
33.03	2.70843
33.04	2.73277
33.05	2.74823
33.06	2.75251
33.07	2.76501
33.08	2.75349
33.09	2.71928
33.1	2.74626
33.11	2.72718
33.12	2.72553
33.13	2.74691
33.14	2.72027
33.15	2.70908
33.16	2.72191
33.17	2.72027
33.18	2.71369
33.19	2.71797
33.2	2.71237
33.21	2.70579
33.22	2.71468
33.23	2.72783
33.24	2.72685
33.25	2.73968
33.26	2.70612
33.27	2.74494
33.28	2.75974
33.29	2.74066
33.3	2.72454
33.31	2.74198
33.32	2.72783
33.33	2.7104
33.34	2.71961
33.35	2.73047
33.36	2.73573
33.37	2.73672
33.38	2.73869
33.39	2.71073
33.4	2.71073
33.41	2.7331
33.42	2.73968
33.43	2.73047
33.44	2.74231
33.45	2.71961
33.46	2.7081
33.47	2.72224
33.48	2.75086
33.49	2.73211
33.5	2.73079
33.51	2.72849
33.52	2.73244
33.53	2.74856
33.54	2.72619
33.55	2.72783
33.56	2.73441
33.57	2.70711
33.58	2.69625
33.59	2.7252
33.6	2.73639
33.61	2.73935
33.62	2.72981
33.63	2.69428
33.64	2.72586
33.65	2.69494
33.66	2.73014
33.67	2.72948
33.68	2.75415
33.69	2.74889
33.7	2.74395
33.71	2.74264
33.72	2.7502
33.73	2.7581
33.74	2.73112
33.75	2.69494
33.76	2.72619
33.77	2.72619
33.78	2.73507
33.79	2.74132
33.8	2.72224
33.81	2.715
33.82	2.73079
33.83	2.72027
33.84	2.72323
33.85	2.71106
33.86	2.72224
33.87	2.74099
33.88	2.7206
33.89	2.73211
33.9	2.73178
33.91	2.73376
33.92	2.75349
33.93	2.715
33.94	2.75349
33.95	2.77586
33.96	2.73079
33.97	2.73935
33.98	2.69691
33.99	2.71698
34	2.70612
34.01	2.73968
34.02	2.71468
34.03	2.71599
34.04	2.72356
34.05	2.73211
34.06	2.73047
34.07	2.72454
34.08	2.74329
34.09	2.7252
34.1	2.73935
34.11	2.7275
34.12	2.72027
34.13	2.72093
34.14	2.7081
34.15	2.72093
34.16	2.72783
34.17	2.74362
34.18	2.71731
34.19	2.73277
34.2	2.72652
34.21	2.73507
34.22	2.73672
34.23	2.7025
34.24	2.75415
34.25	2.7206
34.26	2.74099
34.27	2.70119
34.28	2.72718
34.29	2.73047
34.3	2.72783
34.31	2.71336
34.32	2.73507
34.33	2.7081
34.34	2.71303
34.35	2.71073
34.36	2.73737
34.37	2.715
34.38	2.72125
34.39	2.7229
34.4	2.70678
34.41	2.74264
34.42	2.74494
34.43	2.74494
34.44	2.75185
34.45	2.69362
34.46	2.72981
34.47	2.72323
34.48	2.74428
34.49	2.73968
34.5	2.70349
34.51	2.70711
34.52	2.76205
34.53	2.73573
34.54	2.74955
34.55	2.74132
34.56	2.70415
34.57	2.66994
34.58	2.69856
34.59	2.72948
34.6	2.71961
34.61	2.71402
34.62	2.69724
34.63	2.72685
34.64	2.73639
34.65	2.74922
34.66	2.70645
34.67	2.72553
34.68	2.70908
34.69	2.72191
34.7	2.71961
34.71	2.69823
34.72	2.73672
34.73	2.73145
34.74	2.72685
34.75	2.7604
34.76	2.73079
34.77	2.73968
34.78	2.72257
34.79	2.72323
34.8	2.72816
34.81	2.7127
34.82	2.75711
34.83	2.71566
34.84	2.71237
34.85	2.75481
34.86	2.75349
34.87	2.74099
34.88	2.71928
34.89	2.75251
34.9	2.74428
34.91	2.71566
34.92	2.71303
34.93	2.73869
34.94	2.7025
34.95	2.7331
34.96	2.72389
34.97	2.70843
34.98	2.72783
34.99	2.74099
35	2.76237
35.01	2.75448
35.02	2.74099
35.03	2.75283
35.04	2.73343
35.05	2.72027
35.06	2.68408
35.07	2.7229
35.08	2.72158
35.09	2.71829
35.1	2.74593
35.11	2.73836
35.12	2.74494
35.13	2.72718
35.14	2.71007
35.15	2.73639
35.16	2.72389
35.17	2.7331
35.18	2.72619
35.19	2.74362
35.2	2.76336
35.21	2.76468
35.22	2.72619
35.23	2.74428
35.24	2.70908
35.25	2.72389
35.26	2.70941
35.27	2.75514
35.28	2.77027
35.29	2.71928
35.3	2.72783
35.31	2.71994
35.32	2.72816
35.33	2.73968
35.34	2.74001
35.35	2.74658
35.36	2.75678
35.37	2.74099
35.38	2.74527
35.39	2.71303
35.4	2.72849
35.41	2.70941
35.42	2.73672
35.43	2.74362
35.44	2.69527
35.45	2.73343
35.46	2.72718
35.47	2.71007
35.48	2.71665
35.49	2.73145
35.5	2.71237
35.51	2.69461
35.52	2.71961
35.53	2.74132
35.54	2.72718
35.55	2.73441
35.56	2.73079
35.57	2.71402
35.58	2.72685
35.59	2.73474
35.6	2.73145
35.61	2.69856
35.62	2.70119
35.63	2.71237
35.64	2.72685
35.65	2.71764
35.66	2.73803
35.67	2.74395
35.68	2.7627
35.69	2.73145
35.7	2.74231
35.71	2.7252
35.72	2.72224
35.73	2.72849
35.74	2.7206
35.75	2.69494
35.76	2.73573
35.77	2.74198
35.78	2.74626
35.79	2.76106
35.8	2.73606
35.81	2.76369
35.82	2.72093
35.83	2.72224
35.84	2.72685
35.85	2.74922
35.86	2.76928
35.87	2.75481
35.88	2.73836
35.89	2.7456
35.9	2.7479
35.91	2.72389
35.92	2.7331
35.93	2.71336
35.94	2.70645
35.95	2.74527
35.96	2.74889
35.97	2.71435
35.98	2.72487
35.99	2.75382
36	2.72816
36.01	2.69856
36.02	2.72257
36.03	2.72816
36.04	2.73408
36.05	2.73573
36.06	2.72093
36.07	2.7354
36.08	2.71632
36.09	2.67092
36.1	2.70711
36.11	2.73145
36.12	2.74001
36.13	2.72685
36.14	2.68441
36.15	2.69724
36.16	2.72619
36.17	2.73935
36.18	2.76797
36.19	2.75316
36.2	2.73441
36.21	2.71764
36.22	2.72685
36.23	2.7479
36.24	2.71632
36.25	2.71533
36.26	2.72718
36.27	2.73277
36.28	2.73408
36.29	2.75612
36.3	2.78277
36.31	2.73573
36.32	2.73474
36.33	2.75086
36.34	2.76205
36.35	2.73869
36.36	2.70875
36.37	2.7479
36.38	2.75283
36.39	2.7229
36.4	2.7002
36.41	2.70514
36.42	2.68244
36.43	2.69329
36.44	2.71106
36.45	2.71764
36.46	2.72718
36.47	2.69231
36.48	2.73672
36.49	2.73112
36.5	2.70777
36.51	2.68046
36.52	2.69691
36.53	2.70941
36.54	2.69954
36.55	2.73803
36.56	2.70941
36.57	2.74264
36.58	2.72915
36.59	2.73639
36.6	2.72816
36.61	2.76303
36.62	2.76632
36.63	2.74461
36.64	2.74889
36.65	2.72257
36.66	2.70908
36.67	2.6729
36.68	2.71171
36.69	2.72323
36.7	2.73606
36.71	2.74955
36.72	2.75251
36.73	2.7456
36.74	2.74264
36.75	2.72783
36.76	2.72422
36.77	2.72323
36.78	2.74757
36.79	2.74757
36.8	2.72323
36.81	2.72158
36.82	2.74066
36.83	2.76435
36.84	2.75316
36.85	2.75349
36.86	2.73441
36.87	2.74066
36.88	2.71073
36.89	2.73704
36.9	2.74724
36.91	2.73737
36.92	2.73047
36.93	2.73836
36.94	2.72257
36.95	2.72619
36.96	2.75744
36.97	2.74264
36.98	2.75678
36.99	2.75612
37	2.74231
37.01	2.72783
37.02	2.72093
37.03	2.75086
37.04	2.74198
37.05	2.72224
37.06	2.74626
37.07	2.71007
37.08	2.6979
37.09	2.72619
37.1	2.73277
37.11	2.73737
37.12	2.7683
37.13	2.74823
37.14	2.73441
37.15	2.76534
37.16	2.70645
37.17	2.73935
37.18	2.72586
37.19	2.71928
37.2	2.69592
37.21	2.72257
37.22	2.70941
37.23	2.69954
37.24	2.75612
37.25	2.73014
37.26	2.74165
37.27	2.70908
37.28	2.7331
37.29	2.74264
37.3	2.72816
37.31	2.7206
37.32	2.70744
37.33	2.72783
37.34	2.75316
37.35	2.73145
37.36	2.72027
37.37	2.7229
37.38	2.69
37.39	2.73047
37.4	2.74001
37.41	2.72257
37.42	2.70086
37.43	2.73704
37.44	2.74329
37.45	2.74264
37.46	2.69527
37.47	2.72685
37.48	2.72948
37.49	2.76566
37.5	2.75547
37.51	2.74658
37.52	2.7377
37.53	2.72849
37.54	2.72981
37.55	2.75448
37.56	2.7331
37.57	2.73145
37.58	2.72718
37.59	2.69264
37.6	2.71171
37.61	2.72915
37.62	2.73244
37.63	2.72816
37.64	2.73112
37.65	2.75119
37.66	2.71862
37.67	2.71994
37.68	2.71204
37.69	2.74461
37.7	2.70875
37.71	2.72125
37.72	2.68145
37.73	2.72158
37.74	2.7252
37.75	2.74165
37.76	2.73376
37.77	2.72487
37.78	2.71073
37.79	2.70415
37.8	2.74264
37.81	2.75053
37.82	2.71994
37.83	2.69889
37.84	2.70974
37.85	2.7206
37.86	2.74198
37.87	2.7558
37.88	2.71665
37.89	2.7275
37.9	2.73606
37.91	2.75843
37.92	2.71665
37.93	2.7002
37.94	2.72685
37.95	2.7581
37.96	2.74329
37.97	2.7479
37.98	2.72816
37.99	2.74362
38	2.74856
38.01	2.73968
38.02	2.72718
38.03	2.75645
38.04	2.74428
38.05	2.74955
38.06	2.77882
38.07	2.715
38.08	2.70415
38.09	2.73474
38.1	2.76731
38.11	2.7627
38.12	2.74889
38.13	2.74691
38.14	2.73672
38.15	2.73737
38.16	2.71073
38.17	2.7081
38.18	2.72652
38.19	2.73178
38.2	2.73803
38.21	2.72718
38.22	2.75908
38.23	2.73178
38.24	2.74231
38.25	2.73474
38.26	2.74428
38.27	2.72718
38.28	2.73376
38.29	2.73672
38.3	2.74198
38.31	2.72849
38.32	2.72652
38.33	2.75415
38.34	2.73047
38.35	2.73606
38.36	2.73079
38.37	2.7252
38.38	2.74165
38.39	2.71435
38.4	2.71468
38.41	2.75152
38.42	2.74231
38.43	2.74922
38.44	2.72323
38.45	2.73474
38.46	2.74955
38.47	2.72783
38.48	2.71237
38.49	2.69395
38.5	2.71632
38.51	2.71533
38.52	2.73112
38.53	2.71073
38.54	2.72158
38.55	2.75876
38.56	2.72981
38.57	2.7025
38.58	2.71468
38.59	2.74198
38.6	2.73047
38.61	2.74165
38.62	2.74724
38.63	2.7252
38.64	2.71895
38.65	2.71435
38.66	2.70283
38.67	2.72093
38.68	2.71862
38.69	2.72191
38.7	2.74198
38.71	2.70382
38.72	2.72125
38.73	2.7104
38.74	2.73244
38.75	2.7331
38.76	2.74165
38.77	2.72125
38.78	2.72027
38.79	2.71632
38.8	2.73672
38.81	2.7456
38.82	2.74033
38.83	2.73047
38.84	2.71895
38.85	2.72356
38.86	2.73376
38.87	2.74527
38.88	2.73836
38.89	2.76172
38.9	2.74658
38.91	2.74626
38.92	2.74395
38.93	2.70185
38.94	2.73079
38.95	2.73277
38.96	2.71237
38.97	2.74264
38.98	2.70514
38.99	2.72586
39	2.71468
39.01	2.73639
39.02	2.73211
39.03	2.71369
39.04	2.73047
39.05	2.70744
39.06	2.71895
39.07	2.74856
39.08	2.76764
39.09	2.73737
39.1	2.71994
39.11	2.72652
39.12	2.71599
39.13	2.72685
39.14	2.72948
39.15	2.72652
39.16	2.74099
39.17	2.72454
39.18	2.70448
39.19	2.72191
39.2	2.75744
39.21	2.74165
39.22	2.74231
39.23	2.74066
39.24	2.7002
39.25	2.7252
39.26	2.72125
39.27	2.73277
39.28	2.70283
39.29	2.73737
39.3	2.74494
39.31	2.73803
39.32	2.74658
39.33	2.73343
39.34	2.7252
39.35	2.71895
39.36	2.72125
39.37	2.7377
39.38	2.73014
39.39	2.72816
39.4	2.73112
39.41	2.72882
39.42	2.75908
39.43	2.72323
39.44	2.7229
39.45	2.70053
39.46	2.73244
39.47	2.7377
39.48	2.71632
39.49	2.72882
39.5	2.70086
39.51	2.72849
39.52	2.71632
39.53	2.74297
39.54	2.69198
39.55	2.71961
39.56	2.75349
39.57	2.73112
39.58	2.70678
39.59	2.73244
39.6	2.7331
39.61	2.74494
39.62	2.74264
39.63	2.73145
39.64	2.71797
39.65	2.74132
39.66	2.70908
39.67	2.70678
39.68	2.67685
39.69	2.71665
39.7	2.72323
39.71	2.7229
39.72	2.71829
39.73	2.7104
39.74	2.73441
39.75	2.73047
39.76	2.70053
39.77	2.72553
39.78	2.73737
39.79	2.72816
39.8	2.72323
39.81	2.73441
39.82	2.71961
39.83	2.71106
39.84	2.70349
39.85	2.73244
39.86	2.75843
39.87	2.7502
39.88	2.73935
39.89	2.72454
39.9	2.76336
39.91	2.72915
39.92	2.73014
39.93	2.71599
39.94	2.73474
39.95	2.74757
39.96	2.72224
39.97	2.70843
39.98	2.72849
39.99	2.72553
40	2.73244
40.01	2.75218
40.02	2.75316
40.03	2.73376
40.04	2.76007
40.05	2.72652
40.06	2.72323
40.07	2.73145
40.08	2.73211
40.09	2.73737
40.1	2.72915
40.11	2.74527
40.12	2.74099
40.13	2.75448
40.14	2.73803
40.15	2.75382
40.16	2.73803
40.17	2.74395
40.18	2.74494
40.19	2.75185
40.2	2.76501
40.21	2.74231
40.22	2.72093
40.23	2.715
40.24	2.72783
40.25	2.6956
40.26	2.72158
40.27	2.72454
40.28	2.74099
40.29	2.7275
40.3	2.7706
40.31	2.73112
40.32	2.73211
40.33	2.71369
40.34	2.73376
40.35	2.73408
40.36	2.73277
40.37	2.74691
40.38	2.75908
40.39	2.74691
40.4	2.73244
40.41	2.74132
40.42	2.70645
40.43	2.69856
40.44	2.74494
40.45	2.76895
40.46	2.74329
40.47	2.7275
40.48	2.73376
40.49	2.71139
40.5	2.71698
40.51	2.72125
40.52	2.72685
40.53	2.7627
40.54	2.7206
40.55	2.70908
40.56	2.74691
40.57	2.71862
40.58	2.69757
40.59	2.71106
40.6	2.73145
40.61	2.71928
40.62	2.70645
40.63	2.74922
40.64	2.70152
40.65	2.69099
40.66	2.68639
40.67	2.75415
40.68	2.73507
40.69	2.70941
40.7	2.74001
40.71	2.71731
40.72	2.7275
40.73	2.74099
40.74	2.73737
40.75	2.74691
40.76	2.75349
40.77	2.72224
40.78	2.72652
40.79	2.72093
40.8	2.73803
40.81	2.73112
40.82	2.74428
40.83	2.73244
40.84	2.71961
40.85	2.73704
40.86	2.7025
40.87	2.73935
40.88	2.70448
40.89	2.71435
40.9	2.7354
40.91	2.72849
40.92	2.71566
40.93	2.72718
40.94	2.73145
40.95	2.73244
40.96	2.73606
40.97	2.7252
40.98	2.72323
40.99	2.74362
41	2.71171
41.01	2.70678
41.02	2.73014
41.03	2.72553
41.04	2.72257
41.05	2.73079
41.06	2.73277
41.07	2.71171
41.08	2.71829
41.09	2.73145
41.1	2.71928
41.11	2.71007
41.12	2.71369
41.13	2.73573
41.14	2.76106
41.15	2.75316
41.16	2.72718
41.17	2.72586
41.18	2.7127
41.19	2.72783
41.2	2.70777
41.21	2.72816
41.22	2.7081
41.23	2.74889
41.24	2.69362
41.25	2.6706
41.26	2.72158
41.27	2.68277
41.28	2.6979
41.29	2.70546
41.3	2.71928
41.31	2.69066
41.32	2.75612
41.33	2.74099
41.34	2.73507
41.35	2.7229
41.36	2.73408
41.37	2.74987
41.38	2.75908
41.39	2.72422
41.4	2.69823
41.41	2.71928
41.42	2.72191
41.43	2.74198
41.44	2.72553
41.45	2.73704
41.46	2.74461
41.47	2.73836
41.48	2.71369
41.49	2.7479
41.5	2.74395
41.51	2.72816
41.52	2.71961
41.53	2.74461
41.54	2.73178
41.55	2.70382
41.56	2.73112
41.57	2.73639
41.58	2.71961
41.59	2.69296
41.6	2.74395
41.61	2.70908
41.62	2.76336
41.63	2.73803
41.64	2.72816
41.65	2.72948
41.66	2.7229
41.67	2.72718
41.68	2.7252
41.69	2.70875
41.7	2.72454
41.71	2.72652
41.72	2.72652
41.73	2.74527
41.74	2.75119
41.75	2.7354
41.76	2.73047
41.77	2.69592
41.78	2.71533
41.79	2.74099
41.8	2.72619
41.81	2.72915
41.82	2.71665
41.83	2.70218
41.84	2.72257
41.85	2.72882
41.86	2.73145
41.87	2.75283
41.88	2.7604
41.89	2.74461
41.9	2.73869
41.91	2.74856
41.92	2.74066
41.93	2.70711
41.94	2.68244
41.95	2.71895
41.96	2.72487
41.97	2.74099
41.98	2.70349
41.99	2.74494
42	2.71303
42.01	2.71895
42.02	2.71994
42.03	2.71994
42.04	2.73441
42.05	2.72948
42.06	2.71237
42.07	2.74527
42.08	2.74001
42.09	2.70514
42.1	2.70678
42.11	2.72389
42.12	2.73737
42.13	2.74329
42.14	2.71994
42.15	2.71994
42.16	2.75152
42.17	2.75908
42.18	2.75711
42.19	2.7479
42.2	2.73014
42.21	2.72454
42.22	2.76237
42.23	2.73244
42.24	2.74724
42.25	2.74724
42.26	2.73836
42.27	2.70382
42.28	2.71829
42.29	2.71599
42.3	2.73376
42.31	2.70678
42.32	2.68079
42.33	2.74001
42.34	2.76435
42.35	2.715
42.36	2.73047
42.37	2.71928
42.38	2.715
42.39	2.72718
42.4	2.70415
42.41	2.77191
42.42	2.73112
42.43	2.73211
42.44	2.72422
42.45	2.73606
42.46	2.74987
42.47	2.7479
42.48	2.76073
42.49	2.76468
42.5	2.72356
42.51	2.74626
42.52	2.7127
42.53	2.73014
42.54	2.71073
42.55	2.72323
42.56	2.73244
42.57	2.73573
42.58	2.73672
42.59	2.73014
42.6	2.74395
42.61	2.76534
42.62	2.7275
42.63	2.71862
42.64	2.73145
42.65	2.75316
42.66	2.7081
42.67	2.71204
42.68	2.73803
42.69	2.70744
42.7	2.70546
42.71	2.73672
42.72	2.73408
42.73	2.73737
42.74	2.7252
42.75	2.72158
42.76	2.74395
42.77	2.71797
42.78	2.71073
42.79	2.715
42.8	2.74757
42.81	2.73408
42.82	2.75547
42.83	2.74395
42.84	2.73014
42.85	2.73441
42.86	2.69264
42.87	2.73079
42.88	2.72553
42.89	2.72487
42.9	2.71106
42.91	2.7558
42.92	2.74066
42.93	2.7252
42.94	2.73573
42.95	2.73277
42.96	2.74066
42.97	2.71336
42.98	2.71961
42.99	2.75086
43	2.74691
43.01	2.7206
43.02	2.70744
43.03	2.75645
43.04	2.7581
43.05	2.73112
43.06	2.72487
43.07	2.72981
43.08	2.74889
43.09	2.73573
43.1	2.70612
43.11	2.73145
43.12	2.71336
43.13	2.75152
43.14	2.73343
43.15	2.71303
43.16	2.73145
43.17	2.70941
43.18	2.70711
43.19	2.69823
43.2	2.70283
43.21	2.71731
43.22	2.75645
43.23	2.75119
43.24	2.71336
43.25	2.70481
43.26	2.71007
43.27	2.75645
43.28	2.74198
43.29	2.72718
43.3	2.74132
43.31	2.72783
43.32	2.70744
43.33	2.73573
43.34	2.72619
43.35	2.72849
43.36	2.72882
43.37	2.73606
43.38	2.72323
43.39	2.7377
43.4	2.74823
43.41	2.71731
43.42	2.73211
43.43	2.72948
43.44	2.72718
43.45	2.72125
43.46	2.7206
43.47	2.73047
43.48	2.75349
43.49	2.74461
43.5	2.71566
43.51	2.74165
43.52	2.72356
43.53	2.73935
43.54	2.74264
43.55	2.74231
43.56	2.74724
43.57	2.76402
43.58	2.69757
43.59	2.70974
43.6	2.7502
43.61	2.73408
43.62	2.72125
43.63	2.71237
43.64	2.71139
43.65	2.71369
43.66	2.75547
43.67	2.74329
43.68	2.73178
43.69	2.73803
43.7	2.7377
43.71	2.70941
43.72	2.73244
43.73	2.74691
43.74	2.73277
43.75	2.74856
43.76	2.73672
43.77	2.72389
43.78	2.73803
43.79	2.73869
43.8	2.73112
43.81	2.72948
43.82	2.74987
43.83	2.74428
43.84	2.72915
43.85	2.72619
43.86	2.71632
43.87	2.70875
43.88	2.7604
43.89	2.76237
43.9	2.77093
43.91	2.72619
43.92	2.70514
43.93	2.71797
43.94	2.74165
43.95	2.74165
43.96	2.7275
43.97	2.72553
43.98	2.72323
43.99	2.73672
44	2.72652
44.01	2.72783
44.02	2.75547
44.03	2.73869
44.04	2.73704
44.05	2.72454
44.06	2.70645
44.07	2.73145
44.08	2.74922
44.09	2.71632
44.1	2.73178
44.11	2.73474
44.12	2.7252
44.13	2.74231
44.14	2.71303
44.15	2.71632
44.16	2.73869
44.17	2.71237
44.18	2.715
44.19	2.74823
44.2	2.72323
44.21	2.67421
44.22	2.69921
44.23	2.72981
44.24	2.71928
44.25	2.73014
44.26	2.70152
44.27	2.71073
44.28	2.71303
44.29	2.70448
44.3	2.71435
44.31	2.75283
44.32	2.73803
44.33	2.73014
44.34	2.72027
44.35	2.7377
44.36	2.74626
44.37	2.70349
44.38	2.72619
44.39	2.73441
44.4	2.71369
44.41	2.72191
44.42	2.71369
44.43	2.7104
44.44	2.71007
44.45	2.71961
44.46	2.73047
44.47	2.74165
44.48	2.73343
44.49	2.70152
44.5	2.73079
44.51	2.74889
44.52	2.71204
44.53	2.73474
44.54	2.76172
44.55	2.71106
44.56	2.72981
44.57	2.7581
44.58	2.77126
44.59	2.71073
44.6	2.73474
44.61	2.71402
44.62	2.7206
44.63	2.71171
44.64	2.74099
44.65	2.72783
44.66	2.71369
44.67	2.71369
44.68	2.71764
44.69	2.72981
44.7	2.715
44.71	2.72816
44.72	2.70941
44.73	2.71468
44.74	2.71731
44.75	2.69757
44.76	2.72389
44.77	2.70645
44.78	2.72422
44.79	2.75514
44.8	2.74198
44.81	2.72685
44.82	2.72652
44.83	2.71862
44.84	2.73145
44.85	2.7025
44.86	2.73902
44.87	2.77882
44.88	2.72389
44.89	2.72652
44.9	2.71698
44.91	2.75612
44.92	2.73573
44.93	2.73112
44.94	2.74362
44.95	2.73869
44.96	2.74362
44.97	2.74264
44.98	2.74001
44.99	2.73902
45	2.75283
45.01	2.74757
45.02	2.71797
45.03	2.70974
45.04	2.68474
45.05	2.72323
45.06	2.74461
45.07	2.73507
45.08	2.73474
45.09	2.72487
45.1	2.72685
45.11	2.75349
45.12	2.75974
45.13	2.73606
45.14	2.7252
45.15	2.7456
45.16	2.72422
45.17	2.72849
45.18	2.69954
45.19	2.6854
45.2	2.71303
45.21	2.7331
45.22	2.74922
45.23	2.72323
45.24	2.69987
45.25	2.7558
45.26	2.71764
45.27	2.74658
45.28	2.69823
45.29	2.71303
45.3	2.72553
45.31	2.74001
45.32	2.70941
45.33	2.71928
45.34	2.73376
45.35	2.71007
45.36	2.73902
45.37	2.72093
45.38	2.72422
45.39	2.70283
45.4	2.70349
45.41	2.71073
45.42	2.67388
45.43	2.73935
45.44	2.74329
45.45	2.73178
45.46	2.74329
45.47	2.73079
45.48	2.74724
45.49	2.69921
45.5	2.70382
45.51	2.74264
45.52	2.76402
45.53	2.73474
45.54	2.70448
45.55	2.71402
45.56	2.71632
45.57	2.72685
45.58	2.71171
45.59	2.71961
45.6	2.72356
45.61	2.72652
45.62	2.72323
45.63	2.75612
45.64	2.715
45.65	2.74494
45.66	2.73079
45.67	2.68639
45.68	2.70875
45.69	2.70941
45.7	2.69428
45.71	2.70448
45.72	2.69889
45.73	2.72849
45.74	2.73408
45.75	2.74099
45.76	2.73474
45.77	2.74856
45.78	2.74691
45.79	2.73408
45.8	2.73573
45.81	2.69428
45.82	2.76961
45.83	2.75514
45.84	2.74099
45.85	2.71665
45.86	2.72882
45.87	2.70941
45.88	2.73079
45.89	2.7104
45.9	2.72125
45.91	2.68803
45.92	2.67487
45.93	2.70053
45.94	2.72454
45.95	2.70875
45.96	2.71139
45.97	2.73672
45.98	2.73211
45.99	2.70349
46	2.74066
46.01	2.74593
46.02	2.76566
46.03	2.74757
46.04	2.71303
46.05	2.72816
46.06	2.72948
46.07	2.73408
46.08	2.71632
46.09	2.71435
46.1	2.73211
46.11	2.715
46.12	2.70415
46.13	2.72356
46.14	2.73968
46.15	2.74132
46.16	2.7479
46.17	2.73836
46.18	2.75349
46.19	2.73079
46.2	2.70086
46.21	2.69592
46.22	2.69724
46.23	2.71204
46.24	2.73935
46.25	2.73211
46.26	2.73935
46.27	2.74823
46.28	2.74593
46.29	2.71303
46.3	2.71731
46.31	2.74856
46.32	2.71731
46.33	2.71336
46.34	2.70843
46.35	2.71073
46.36	2.72158
46.37	2.71533
46.38	2.69527
46.39	2.74132
46.4	2.71566
46.41	2.71895
46.42	2.72356
46.43	2.74198
46.44	2.71533
46.45	2.72882
46.46	2.72981
46.47	2.72389
46.48	2.70579
46.49	2.71336
46.5	2.75349
46.51	2.72915
46.52	2.75185
46.53	2.73573
46.54	2.72948
46.55	2.72652
46.56	2.70777
46.57	2.72849
46.58	2.71106
46.59	2.74001
46.6	2.72619
46.61	2.75251
46.62	2.72027
46.63	2.7025
46.64	2.72915
46.65	2.73606
46.66	2.7331
46.67	2.72586
46.68	2.75415
46.69	2.77224
46.7	2.77652
46.71	2.74658
46.72	2.73704
46.73	2.71533
46.74	2.71533
46.75	2.73573
46.76	2.74033
46.77	2.70744
46.78	2.71336
46.79	2.73836
46.8	2.74461
46.81	2.71533
46.82	2.72093
46.83	2.65513
46.84	2.73145
46.85	2.77816
46.86	2.73047
46.87	2.71829
46.88	2.74987
46.89	2.71402
46.9	2.71139
46.91	2.73178
46.92	2.7354
46.93	2.73047
46.94	2.73079
46.95	2.71665
46.96	2.71829
46.97	2.71106
46.98	2.72849
46.99	2.72257
47	2.72093
47.01	2.74362
47.02	2.72257
47.03	2.74329
47.04	2.72356
47.05	2.74461
47.06	2.7604
47.07	2.7354
47.08	2.74395
47.09	2.72718
47.1	2.7377
47.11	2.6979
47.12	2.72257
47.13	2.72685
47.14	2.71961
47.15	2.73737
47.16	2.71895
47.17	2.70843
47.18	2.73343
47.19	2.75744
47.2	2.7377
47.21	2.70448
47.22	2.70415
47.23	2.71731
47.24	2.74691
47.25	2.75283
47.26	2.73408
47.27	2.70382
47.28	2.71237
47.29	2.73408
47.3	2.75974
47.31	2.74231
47.32	2.73573
47.33	2.72389
47.34	2.72849
47.35	2.73573
47.36	2.71237
47.37	2.70349
47.38	2.73145
47.39	2.74494
47.4	2.73803
47.41	2.7104
47.42	2.73441
47.43	2.74001
47.44	2.7252
47.45	2.7252
47.46	2.72816
47.47	2.74264
47.48	2.73968
47.49	2.72619
47.5	2.75547
47.51	2.74198
47.52	2.71533
47.53	2.73211
47.54	2.71566
47.55	2.73047
47.56	2.71994
47.57	2.72816
47.58	2.77619
47.59	2.72586
47.6	2.70711
47.61	2.72553
47.62	2.75349
47.63	2.73935
47.64	2.77915
47.65	2.75382
47.66	2.73047
47.67	2.69592
47.68	2.69856
47.69	2.70546
47.7	2.70678
47.71	2.72125
47.72	2.72224
47.73	2.70678
47.74	2.74527
47.75	2.73408
47.76	2.73606
47.77	2.70579
47.78	2.71336
47.79	2.70316
47.8	2.70744
47.81	2.74297
47.82	2.72191
47.83	2.72027
47.84	2.71171
47.85	2.74001
47.86	2.72389
47.87	2.73606
47.88	2.73408
47.89	2.71895
47.9	2.73408
47.91	2.7104
47.92	2.72685
47.93	2.74033
47.94	2.72093
47.95	2.73014
47.96	2.74461
47.97	2.70448
47.98	2.72718
47.99	2.75316
48	2.72586
48.01	2.71895
48.02	2.69362
48.03	2.71632
48.04	2.71237
48.05	2.74691
48.06	2.7456
48.07	2.75251
48.08	2.73343
48.09	2.71007
48.1	2.74231
48.11	2.7275
48.12	2.69231
48.13	2.73112
48.14	2.74922
48.15	2.71237
48.16	2.74165
48.17	2.7377
48.18	2.72454
48.19	2.71402
48.2	2.74033
48.21	2.7206
48.22	2.75349
48.23	2.74658
48.24	2.70875
48.25	2.72487
48.26	2.73408
48.27	2.71139
48.28	2.73902
48.29	2.79461
48.3	2.71994
48.31	2.72718
48.32	2.72422
48.33	2.70711
48.34	2.72948
48.35	2.73968
48.36	2.74494
48.37	2.75908
48.38	2.74856
48.39	2.74428
48.4	2.7206
48.41	2.76994
48.42	2.73474
48.43	2.74889
48.44	2.70678
48.45	2.72981
48.46	2.74626
48.47	2.76205
48.48	2.7252
48.49	2.72191
48.5	2.75185
48.51	2.72652
48.52	2.73376
48.53	2.70941
48.54	2.73376
48.55	2.71237
48.56	2.74922
48.57	2.71237
48.58	2.73704
48.59	2.70579
48.6	2.73277
48.61	2.74724
48.62	2.71994
48.63	2.7081
48.64	2.74033
48.65	2.73079
48.66	2.73047
48.67	2.74494
48.68	2.7127
48.69	2.72487
48.7	2.74527
48.71	2.74362
48.72	2.73474
48.73	2.74691
48.74	2.73376
48.75	2.7331
48.76	2.73112
48.77	2.74001
48.78	2.72586
48.79	2.74527
48.8	2.69198
48.81	2.7377
48.82	2.75612
48.83	2.75053
48.84	2.73112
48.85	2.74691
48.86	2.74395
48.87	2.74626
48.88	2.7456
48.89	2.72882
48.9	2.72948
48.91	2.73112
48.92	2.72882
48.93	2.74198
48.94	2.7331
48.95	2.71764
48.96	2.76698
48.97	2.71435
48.98	2.71829
48.99	2.715
49	2.69132
49.01	2.6831
49.02	2.71698
49.03	2.7206
49.04	2.69823
49.05	2.69099
49.06	2.7354
49.07	2.73836
49.08	2.72849
49.09	2.7479
49.1	2.71204
49.11	2.70744
49.12	2.7331
49.13	2.72356
49.14	2.74626
49.15	2.72093
49.16	2.71665
49.17	2.73869
49.18	2.72389
49.19	2.73441
49.2	2.72981
49.21	2.72981
49.22	2.71895
49.23	2.73902
49.24	2.73869
49.25	2.73112
49.26	2.72915
49.27	2.71533
49.28	2.72224
49.29	2.70579
49.3	2.7104
49.31	2.74856
49.32	2.74033
49.33	2.72389
49.34	2.70218
49.35	2.70415
49.36	2.71599
49.37	2.74856
49.38	2.75908
49.39	2.75053
49.4	2.72816
49.41	2.72389
49.42	2.71402
49.43	2.71961
49.44	2.70514
49.45	2.71073
49.46	2.73803
49.47	2.74033
49.48	2.76402
49.49	2.7479
49.5	2.70744
49.51	2.74132
49.52	2.71073
49.53	2.72619
49.54	2.73112
49.55	2.73836
49.56	2.7127
49.57	2.70185
49.58	2.73968
49.59	2.71435
49.6	2.71895
49.61	2.71928
49.62	2.72652
49.63	2.72422
49.64	2.75678
49.65	2.73672
49.66	2.72586
49.67	2.70481
49.68	2.68441
49.69	2.7479
49.7	2.74099
49.71	2.71566
49.72	2.7104
49.73	2.71632
49.74	2.74757
49.75	2.71928
49.76	2.71862
49.77	2.73079
49.78	2.74033
49.79	2.73014
49.8	2.73277
49.81	2.7252
49.82	2.75448
49.83	2.70546
49.84	2.70514
49.85	2.71171
49.86	2.73211
49.87	2.72783
49.88	2.73639
49.89	2.73672
49.9	2.73935
49.91	2.73639
49.92	2.73869
49.93	2.70875
49.94	2.74461
49.95	2.73573
49.96	2.69362
49.97	2.71204
49.98	2.71665
49.99	2.71435
50	2.72191
