"BIO-KINE ASCII FILE"
"_COMMENT"	"MOS-500 Spectrometer"
"_COMMENT"	"Kinetics measurement"
"_COMMENT"	"Y Unit : Volt,  X Unit : s"
"_COMMENT"	"Excitation wavelength : 380 nm"
"_COMMENT"	"Fentes bandwidth =  1 nm"
"_COMMENT"	"HV= 700V"
"_COMMENT"	"Timebase  1 =  .01 s   3001 pts"
"_SFM"	"SFM-400 /S  Advanced mode"
"_SFM"	"Ratio : S1: 2.5, S2: 0, S3: 0, S4: 1"
"_SFM"	"Content : S1: , S2: , S3: , S4:"
"_SFM"	"Concentration : S1: , S2: , S3: , S4:"
"_SFM"	"Total volume : 209 µl  Flow : 3.5 mL/s"
"_SFM"	"Acquisition start :  10 ms before stop"
"_SFM"	"cuve=FC-15, s1=10 ml , s2=10 ml , s3=10 ml , s4=1.9 ml"
"_UNITX"	"s"
"_UNITY"	"Volt"
"_DELTAX"	0
"_DATA"
1e-300	7.88358
0.01	8.50728
0.02	8.9109
0.03	8.96222
0.04	8.94906
0.05	8.96387
0.06	8.97867
0.07	8.98163
0.08	8.96715
0.09	8.95531
0.1	8.98064
0.11	8.96979
0.12	8.98919
0.13	8.99643
0.14	8.99544
0.15	8.98426
0.16	8.97373
0.17	8.97538
0.18	8.97933
0.19	8.96715
0.2	8.96123
0.21	8.96222
0.22	8.95827
0.23	8.94742
0.24	8.9609
0.25	8.95169
0.26	8.94248
0.27	8.93525
0.28	8.94314
0.29	8.92143
0.3	8.91682
0.31	8.92472
0.32	8.93327
0.33	8.92176
0.34	8.91255
0.35	8.90926
0.36	8.9109
0.37	8.91189
0.38	8.904
0.39	8.88689
0.4	8.88525
0.41	8.87505
0.42	8.87538
0.43	8.87472
0.44	8.86551
0.45	8.87044
0.46	8.85399
0.47	8.85893
0.48	8.85992
0.49	8.85301
0.5	8.84117
0.51	8.83294
0.52	8.81518
0.53	8.82307
0.54	8.81551
0.55	8.80202
0.56	8.80169
0.57	8.79412
0.58	8.78491
0.59	8.78557
0.6	8.77274
0.61	8.7632
0.62	8.74511
0.63	8.75103
0.64	8.73327
0.65	8.72768
0.66	8.73031
0.67	8.71386
0.68	8.70958
0.69	8.71518
0.7	8.7132
0.71	8.68327
0.72	8.67307
0.73	8.68491
0.74	8.68261
0.75	8.66715
0.76	8.66419
0.77	8.6461
0.78	8.64116
0.79	8.63919
0.8	8.63458
0.81	8.61978
0.82	8.60859
0.83	8.59379
0.84	8.60465
0.85	8.60169
0.86	8.60662
0.87	8.5803
0.88	8.57998
0.89	8.57011
0.9	8.55826
0.91	8.5428
0.92	8.55432
0.93	8.53557
0.94	8.55136
0.95	8.54412
0.96	8.51484
0.97	8.52076
0.98	8.50925
0.99	8.5132
1	8.50399
1.01	8.48918
1.02	8.48918
1.03	8.48063
1.04	8.48129
1.05	8.48984
1.06	8.47438
1.07	8.46912
1.08	8.45037
1.09	8.45859
1.1	8.43293
1.11	8.42701
1.12	8.42931
1.13	8.42208
1.14	8.4155
1.15	8.39938
1.16	8.39806
1.17	8.38852
1.18	8.38754
1.19	8.37043
1.2	8.36352
1.21	8.36352
1.22	8.35662
1.23	8.34148
1.24	8.35234
1.25	8.353
1.26	8.328
1.27	8.32043
1.28	8.31122
1.29	8.30596
1.3	8.3155
1.31	8.29082
1.32	8.28589
1.33	8.28753
1.34	8.27339
1.35	8.28063
1.36	8.27405
1.37	8.24707
1.38	8.25398
1.39	8.24938
1.4	8.25563
1.41	8.25102
1.42	8.21878
1.43	8.21023
1.44	8.20332
1.45	8.20859
1.46	8.19049
1.47	8.19016
1.48	8.18523
1.49	8.17569
1.5	8.17076
1.51	8.18227
1.52	8.15266
1.53	8.13819
1.54	8.14444
1.55	8.13589
1.56	8.11582
1.57	8.13029
1.58	8.12306
1.59	8.11286
1.6	8.12273
1.61	8.10496
1.62	8.0849
1.63	8.08227
1.64	8.07569
1.65	8.06746
1.66	8.07404
1.67	8.06417
1.68	8.04773
1.69	8.04937
1.7	8.04049
1.71	8.02306
1.72	8.03819
1.73	8.02141
1.74	8.00595
1.75	8.00661
1.76	8.01417
1.77	7.9895
1.78	7.97634
1.79	7.98819
1.8	7.96384
1.81	7.96647
1.82	7.96187
1.83	7.93161
1.84	7.93457
1.85	7.93522
1.86	7.91976
1.87	7.93391
1.88	7.92338
1.89	7.90332
1.9	7.89542
1.91	7.89213
1.92	7.89838
1.93	7.89575
1.94	7.88851
1.95	7.88128
1.96	7.86187
1.97	7.86252
1.98	7.84048
1.99	7.83555
2	7.83423
2.01	7.81285
2.02	7.81516
2.03	7.8066
2.04	7.79706
2.05	7.7895
2.06	7.79312
2.07	7.79114
2.08	7.77996
2.09	7.77108
2.1	7.7691
2.11	7.76746
2.12	7.73555
2.13	7.73884
2.14	7.74575
2.15	7.73127
2.16	7.72535
2.17	7.71548
2.18	7.71614
2.19	7.70627
2.2	7.69311
2.21	7.6941
2.22	7.6691
2.23	7.67173
2.24	7.68686
2.25	7.67699
2.26	7.66778
2.27	7.66022
2.28	7.65101
2.29	7.64574
2.3	7.61712
2.31	7.62107
2.32	7.60857
2.33	7.61055
2.34	7.59837
2.35	7.57929
2.36	7.57995
2.37	7.59147
2.38	7.58489
2.39	7.56745
2.4	7.56285
2.41	7.55725
2.42	7.54508
2.43	7.54574
2.44	7.53127
2.45	7.53982
2.46	7.52732
2.47	7.51252
2.48	7.49771
2.49	7.51153
2.5	7.49738
2.51	7.49245
2.52	7.49245
2.53	7.49048
2.54	7.49541
2.55	7.47732
2.56	7.47732
2.57	7.47173
2.58	7.44673
2.59	7.43061
2.6	7.42172
2.61	7.42205
2.62	7.42666
2.63	7.42633
2.64	7.40297
2.65	7.39311
2.66	7.39738
2.67	7.38718
2.68	7.36778
2.69	7.36449
2.7	7.37732
2.71	7.35429
2.72	7.3533
2.73	7.33883
2.74	7.34409
2.75	7.33455
2.76	7.3385
2.77	7.32402
2.78	7.30462
2.79	7.30231
2.8	7.30922
2.81	7.29343
2.82	7.27896
2.83	7.2908
2.84	7.28356
2.85	7.2806
2.86	7.27896
2.87	7.25856
2.88	7.25626
2.89	7.2579
2.9	7.24244
2.91	7.23225
2.92	7.22665
2.93	7.22468
2.94	7.2079
2.95	7.19507
2.96	7.19409
2.97	7.20165
2.98	7.18192
2.99	7.18685
3	7.18159
3.01	7.18718
3.02	7.16843
3.03	7.15099
3.04	7.14869
3.05	7.14639
3.06	7.15757
3.07	7.13882
3.08	7.11974
3.09	7.1204
3.1	7.13915
3.11	7.11612
3.12	7.10691
3.13	7.11086
3.14	7.10264
3.15	7.08882
3.16	7.07829
3.17	7.08816
3.18	7.07928
3.19	7.06645
3.2	7.06481
3.21	7.05954
3.22	7.04639
3.23	7.05297
3.24	7.04935
3.25	7.04606
3.26	7.02994
3.27	7.02829
3.28	7.01316
3.29	7.01086
3.3	7.00428
3.31	7.00099
3.32	7.00263
3.33	6.97599
3.34	6.97434
3.35	6.98816
3.36	6.96809
3.37	6.95461
3.38	6.96086
3.39	6.95592
3.4	6.95099
3.41	6.94737
3.42	6.93684
3.43	6.91941
3.44	6.92007
3.45	6.92566
3.46	6.91217
3.47	6.8977
3.48	6.89408
3.49	6.88947
3.5	6.88421
3.51	6.88684
3.52	6.88882
3.53	6.87895
3.54	6.85526
3.55	6.85
3.56	6.85559
3.57	6.85822
3.58	6.8296
3.59	6.82829
3.6	6.82599
3.61	6.8273
3.62	6.8227
3.63	6.82599
3.64	6.81546
3.65	6.80855
3.66	6.80131
3.67	6.79901
3.68	6.78519
3.69	6.77631
3.7	6.76908
3.71	6.78092
3.72	6.76809
3.73	6.76973
3.74	6.75329
3.75	6.74177
3.76	6.74473
3.77	6.73651
3.78	6.72993
3.79	6.72631
3.8	6.72335
3.81	6.71611
3.82	6.72532
3.83	6.71315
3.84	6.69901
3.85	6.69539
3.86	6.69342
3.87	6.67072
3.88	6.67368
3.89	6.68355
3.9	6.65855
3.91	6.6523
3.92	6.65789
3.93	6.63881
3.94	6.64177
3.95	6.64835
3.96	6.63881
3.97	6.61874
3.98	6.61743
3.99	6.61644
4	6.62072
4.01	6.62335
4.02	6.61216
4.03	6.60558
4.04	6.59605
4.05	6.58881
4.06	6.58651
4.07	6.60065
4.08	6.57433
4.09	6.5694
4.1	6.56381
4.11	6.56052
4.12	6.55723
4.13	6.54999
4.14	6.54703
4.15	6.52828
4.16	6.53354
4.17	6.53124
4.18	6.51775
4.19	6.51808
4.2	6.51841
4.21	6.51512
4.22	6.50163
4.23	6.48913
4.24	6.49177
4.25	6.4944
4.26	6.49374
4.27	6.49078
4.28	6.47269
4.29	6.47236
4.3	6.46348
4.31	6.46019
4.32	6.45624
4.33	6.45229
4.34	6.44473
4.35	6.43584
4.36	6.42926
4.37	6.4194
4.38	6.42367
4.39	6.41479
4.4	6.41479
4.41	6.41611
4.42	6.39966
4.43	6.39834
4.44	6.39505
4.45	6.37071
4.46	6.3763
4.47	6.3842
4.48	6.36545
4.49	6.36446
4.5	6.36347
4.51	6.36907
4.52	6.36578
4.53	6.349
4.54	6.34735
4.55	6.33847
4.56	6.34209
4.57	6.32104
4.58	6.33124
4.59	6.31709
4.6	6.3036
4.61	6.32071
4.62	6.32795
4.63	6.30426
4.64	6.29505
4.65	6.29209
4.66	6.28452
4.67	6.29143
4.68	6.27992
4.69	6.28321
4.7	6.28058
4.71	6.27893
4.72	6.26808
4.73	6.26018
4.74	6.26051
4.75	6.24669
4.76	6.23386
4.77	6.23584
4.78	6.24209
4.79	6.249
4.8	6.2365
4.81	6.22202
4.82	6.22432
4.83	6.22432
4.84	6.21446
4.85	6.21511
4.86	6.20031
4.87	6.20623
4.88	6.19899
4.89	6.18781
4.9	6.19044
4.91	6.18419
4.92	6.17366
4.93	6.16741
4.94	6.15261
4.95	6.16544
4.96	6.16511
4.97	6.14899
4.98	6.14537
4.99	6.14801
5	6.14274
5.01	6.13419
5.02	6.13551
5.03	6.13748
5.04	6.12301
5.05	6.12498
5.06	6.10985
5.07	6.12465
5.08	6.10656
5.09	6.10656
5.1	6.09603
5.11	6.09504
5.12	6.0934
5.13	6.10195
5.14	6.07629
5.15	6.08419
5.16	6.07991
5.17	6.07004
5.18	6.06511
5.19	6.06149
5.2	6.05623
5.21	6.06281
5.22	6.05689
5.23	6.04142
5.24	6.04504
5.25	6.02991
5.26	6.02366
5.27	6.02859
5.28	6.01906
5.29	6.02794
5.3	6.01445
5.31	6.0184
5.32	6.01478
5.33	6.01083
5.34	5.99702
5.35	6.00228
5.36	5.98945
5.37	5.98123
5.38	5.98484
5.39	5.98879
5.4	5.98616
5.41	5.97892
5.42	5.98123
5.43	5.96017
5.44	5.96807
5.45	5.95951
5.46	5.93484
5.47	5.95392
5.48	5.94668
5.49	5.9457
5.5	5.93254
5.51	5.92728
5.52	5.92826
5.53	5.92991
5.54	5.91741
5.55	5.91149
5.56	5.91609
5.57	5.92103
5.58	5.91872
5.59	5.90326
5.6	5.89767
5.61	5.90589
5.62	5.89701
5.63	5.89701
5.64	5.88714
5.65	5.88122
5.66	5.88747
5.67	5.88155
5.68	5.8753
5.69	5.88385
5.7	5.86247
5.71	5.8707
5.72	5.86872
5.73	5.87168
5.74	5.86017
5.75	5.85589
5.76	5.85852
5.77	5.84668
5.78	5.85227
5.79	5.84931
5.8	5.83517
5.81	5.82859
5.82	5.8299
5.83	5.84109
5.84	5.83287
5.85	5.82201
5.86	5.81708
5.87	5.81444
5.88	5.81938
5.89	5.82135
5.9	5.80129
5.91	5.79931
5.92	5.79175
5.93	5.79306
5.94	5.80326
5.95	5.78615
5.96	5.77596
5.97	5.77694
5.98	5.7776
5.99	5.77365
6	5.7628
6.01	5.75622
6.02	5.76444
6.03	5.75227
6.04	5.75096
6.05	5.75589
6.06	5.74799
6.07	5.73451
6.08	5.7378
6.09	5.73385
6.1	5.7322
6.11	5.72793
6.12	5.72332
6.13	5.72036
6.14	5.70391
6.15	5.70852
6.16	5.7128
6.17	5.70918
6.18	5.71707
6.19	5.70128
6.2	5.70556
6.21	5.70161
6.22	5.70293
6.23	5.69832
6.24	5.68582
6.25	5.69799
6.26	5.68681
6.27	5.68155
6.28	5.68747
6.29	5.6697
6.3	5.65852
6.31	5.67365
6.32	5.66806
6.33	5.67431
6.34	5.6674
6.35	5.66082
6.36	5.66148
6.37	5.65391
6.38	5.64503
6.39	5.64437
6.4	5.65424
6.41	5.65194
6.42	5.63681
6.43	5.6322
6.44	5.63911
6.45	5.63253
6.46	5.63023
6.47	5.62496
6.48	5.62431
6.49	5.62464
6.5	5.62069
6.51	5.6072
6.52	5.60621
6.53	5.60654
6.54	5.6026
6.55	5.6049
6.56	5.58977
6.57	5.58944
6.58	5.60062
6.59	5.58483
6.6	5.59108
6.61	5.59042
6.62	5.58516
6.63	5.56411
6.64	5.57365
6.65	5.57102
6.66	5.56641
6.67	5.57134
6.68	5.55457
6.69	5.55687
6.7	5.55259
6.71	5.55029
6.72	5.54536
6.73	5.55128
6.74	5.54503
6.75	5.53976
6.76	5.53286
6.77	5.53845
6.78	5.54437
6.79	5.54108
6.8	5.53549
6.81	5.53154
6.82	5.52101
6.83	5.52726
6.84	5.52891
6.85	5.52134
6.86	5.51246
6.87	5.51246
6.88	5.51871
6.89	5.51805
6.9	5.4993
6.91	5.51345
6.92	5.50588
6.93	5.49503
6.94	5.49305
6.95	5.49601
6.96	5.4993
6.97	5.50193
6.98	5.49075
6.99	5.50062
7	5.49733
7.01	5.4822
7.02	5.47134
7.03	5.47693
7.04	5.47628
7.05	5.45687
7.06	5.47167
7.07	5.4743
7.08	5.46838
7.09	5.45917
7.1	5.45983
7.11	5.45095
7.12	5.45522
7.13	5.45917
7.14	5.44206
7.15	5.44042
7.16	5.44042
7.17	5.43516
7.18	5.42989
7.19	5.43154
7.2	5.43417
7.21	5.41838
7.22	5.42134
7.23	5.43187
7.24	5.43417
7.25	5.43187
7.26	5.42299
7.27	5.42792
7.28	5.42299
7.29	5.4118
7.3	5.40588
7.31	5.40489
7.32	5.41871
7.33	5.41312
7.34	5.4141
7.35	5.40226
7.36	5.39404
7.37	5.39338
7.38	5.3993
7.39	5.397
7.4	5.39733
7.41	5.39239
7.42	5.37989
7.43	5.38022
7.44	5.37562
7.45	5.37989
7.46	5.38877
7.47	5.37562
7.48	5.36279
7.49	5.36575
7.5	5.36805
7.51	5.36739
7.52	5.3641
7.53	5.36443
7.54	5.35719
7.55	5.35785
7.56	5.35325
7.57	5.34798
7.58	5.34338
7.59	5.34107
7.6	5.35061
7.61	5.34535
7.62	5.34765
7.63	5.35292
7.64	5.34107
7.65	5.32956
7.66	5.33022
7.67	5.34272
7.68	5.34239
7.69	5.32561
7.7	5.34206
7.71	5.32923
7.72	5.33252
7.73	5.33318
7.74	5.32265
7.75	5.32923
7.76	5.32331
7.77	5.32792
7.78	5.31739
7.79	5.32298
7.8	5.30851
7.81	5.3016
7.82	5.30292
7.83	5.30686
7.84	5.30851
7.85	5.30949
7.86	5.32068
7.87	5.30686
7.88	5.28877
7.89	5.29568
7.9	5.29864
7.91	5.29403
7.92	5.29897
7.93	5.29107
7.94	5.29568
7.95	5.29272
7.96	5.29403
7.97	5.29239
7.98	5.28581
7.99	5.25949
8	5.27364
8.01	5.2812
8.02	5.27331
8.03	5.26838
8.04	5.26969
8.05	5.26969
8.06	5.27232
8.07	5.27298
8.08	5.25522
8.09	5.25456
8.1	5.2516
8.11	5.25818
8.12	5.26015
8.13	5.25949
8.14	5.24535
8.15	5.25061
8.16	5.24535
8.17	5.24337
8.18	5.23877
8.19	5.23581
8.2	5.24337
8.21	5.23087
8.22	5.22758
8.23	5.22923
8.24	5.22956
8.25	5.22002
8.26	5.22429
8.27	5.21574
8.28	5.21607
8.29	5.21706
8.3	5.22824
8.31	5.22101
8.32	5.21508
8.33	5.20883
8.34	5.21081
8.35	5.20982
8.36	5.19699
8.37	5.21476
8.38	5.20949
8.39	5.20949
8.4	5.20719
8.41	5.20949
8.42	5.20522
8.43	5.19831
8.44	5.19831
8.45	5.18515
8.46	5.18087
8.47	5.2039
8.48	5.19765
8.49	5.19502
8.5	5.18975
8.51	5.1789
8.52	5.19041
8.53	5.17857
8.54	5.18844
8.55	5.18087
8.56	5.1789
8.57	5.16903
8.58	5.19633
8.59	5.17298
8.6	5.17462
8.61	5.17693
8.62	5.18153
8.63	5.16903
8.64	5.17627
8.65	5.16804
8.66	5.17923
8.67	5.16804
8.68	5.16475
8.69	5.17298
8.7	5.16837
8.71	5.16771
8.72	5.16081
8.73	5.1585
8.74	5.15258
8.75	5.14863
8.76	5.15752
8.77	5.15225
8.78	5.16048
8.79	5.15324
8.8	5.14831
8.81	5.14633
8.82	5.14633
8.83	5.15719
8.84	5.14666
8.85	5.13811
8.86	5.13021
8.87	5.13186
8.88	5.13942
8.89	5.13153
8.9	5.1312
8.91	5.13877
8.92	5.13284
8.93	5.13252
8.94	5.12857
8.95	5.12331
8.96	5.11377
8.97	5.1164
8.98	5.13712
8.99	5.11837
9	5.12232
9.01	5.12692
9.02	5.11837
9.03	5.11344
9.04	5.11508
9.05	5.11377
9.06	5.11475
9.07	5.10916
9.08	5.10752
9.09	5.11113
9.1	5.11048
9.11	5.11344
9.12	5.09962
9.13	5.10883
9.14	5.11804
9.15	5.11278
9.16	5.10686
9.17	5.10192
9.18	5.10094
9.19	5.10488
9.2	5.10291
9.21	5.09995
9.22	5.09403
9.23	5.09403
9.24	5.09008
9.25	5.09304
9.26	5.09995
9.27	5.09041
9.28	5.08547
9.29	5.08186
9.3	5.07824
9.31	5.08909
9.32	5.08745
9.33	5.08778
9.34	5.09041
9.35	5.07659
9.36	5.08383
9.37	5.07133
9.38	5.07528
9.39	5.07857
9.4	5.07824
9.41	5.07922
9.42	5.06574
9.43	5.0789
9.44	5.07758
9.45	5.06311
9.46	5.05982
9.47	5.06245
9.48	5.0585
9.49	5.06245
9.5	5.06541
9.51	5.06574
9.52	5.06936
9.53	5.06376
9.54	5.06047
9.55	5.06376
9.56	5.05718
9.57	5.05883
9.58	5.05192
9.59	5.05653
9.6	5.05718
9.61	5.04534
9.62	5.05324
9.63	5.06245
9.64	5.0608
9.65	5.0483
9.66	5.046
9.67	5.04271
9.68	5.046
9.69	5.04172
9.7	5.03876
9.71	5.04468
9.72	5.03843
9.73	5.03284
9.74	5.02955
9.75	5.03745
9.76	5.03679
9.77	5.03416
9.78	5.02495
9.79	5.03087
9.8	5.03449
9.81	5.02297
9.82	5.02758
9.83	5.021
9.84	5.02593
9.85	5.02593
9.86	5.02067
9.87	5.0256
9.88	5.01179
9.89	5.01639
9.9	5.03153
9.91	5.02889
9.92	5.02001
9.93	5.01672
9.94	5.01606
9.95	5.0256
9.96	5.01278
9.97	5.01771
9.98	5.01475
9.99	5.02067
10	5.021
10.01	5.01574
10.02	5.02067
10.03	5.00949
10.04	5.01014
10.05	4.99797
10.06	5.00685
10.07	5.00258
10.08	5.01935
10.09	5.0062
10.1	5.00488
10.11	5.01146
10.12	5.00159
10.13	5.00784
10.14	4.99896
10.15	5.00916
10.16	4.9983
10.17	4.98021
10.18	4.98547
10.19	4.99995
10.2	4.99435
10.21	4.99764
10.22	4.98942
10.23	4.98547
10.24	4.97626
10.25	4.99139
10.26	5.00159
10.27	4.99271
10.28	4.99633
10.29	4.99402
10.3	4.98481
10.31	4.98909
10.32	4.98152
10.33	4.97034
10.34	4.98021
10.35	4.9835
10.36	4.98054
10.37	4.97593
10.38	4.97429
10.39	4.98284
10.4	4.97166
10.41	4.97626
10.42	4.97034
10.43	4.97396
10.44	4.97988
10.45	4.97429
10.46	4.97495
10.47	4.98416
10.48	4.96705
10.49	4.97659
10.5	4.96705
10.51	4.97363
10.52	4.97198
10.53	4.96277
10.54	4.96212
10.55	4.96968
10.56	4.96837
10.57	4.9631
10.58	4.97034
10.59	4.95192
10.6	4.95192
10.61	4.97363
10.62	4.96639
10.63	4.95619
10.64	4.96508
10.65	4.95389
10.66	4.95817
10.67	4.95981
10.68	4.94929
10.69	4.94962
10.7	4.95422
10.71	4.95488
10.72	4.94567
10.73	4.95027
10.74	4.9483
10.75	4.93317
10.76	4.94863
10.77	4.94008
10.78	4.946
10.79	4.95389
10.8	4.95685
10.81	4.95817
10.82	4.94501
10.83	4.93777
10.84	4.94271
10.85	4.93185
10.86	4.9335
10.87	4.94008
10.88	4.93975
10.89	4.94304
10.9	4.93383
10.91	4.93547
10.92	4.94698
10.93	4.93975
10.94	4.9335
10.95	4.92133
10.96	4.94567
10.97	4.93679
10.98	4.92955
10.99	4.92823
11	4.93119
11.01	4.92889
11.02	4.93547
11.03	4.92396
11.04	4.93087
11.05	4.9256
11.06	4.92034
11.07	4.92133
11.08	4.93152
11.09	4.93251
11.1	4.9335
11.11	4.92067
11.12	4.91738
11.13	4.93152
11.14	4.92758
11.15	4.93021
11.16	4.92988
11.17	4.91672
11.18	4.91409
11.19	4.92429
11.2	4.92067
11.21	4.93218
11.22	4.92527
11.23	4.90718
11.24	4.92198
11.25	4.91508
11.26	4.91639
11.27	4.92856
11.28	4.92725
11.29	4.93284
11.3	4.90882
11.31	4.92264
11.32	4.92363
11.33	4.92133
11.34	4.90948
11.35	4.9085
11.36	4.92692
11.37	4.91409
11.38	4.91179
11.39	4.90915
11.4	4.91639
11.41	4.9154
11.42	4.91573
11.43	4.92231
11.44	4.91705
11.45	4.90192
11.46	4.90948
11.47	4.91343
11.48	4.91672
11.49	4.90422
11.5	4.90159
11.51	4.90981
11.52	4.90981
11.53	4.89863
11.54	4.89665
11.55	4.90948
11.56	4.90882
11.57	4.9233
11.58	4.90225
11.59	4.89698
11.6	4.90685
11.61	4.91442
11.62	4.89929
11.63	4.90389
11.64	4.89665
11.65	4.89534
11.66	4.90389
11.67	4.89139
11.68	4.89994
11.69	4.89501
11.7	4.88053
11.71	4.88613
11.72	4.89863
11.73	4.89303
11.74	4.89632
11.75	4.88744
11.76	4.89007
11.77	4.88975
11.78	4.89994
11.79	4.87889
11.8	4.8779
11.81	4.8881
11.82	4.89073
11.83	4.88843
11.84	4.89073
11.85	4.88481
11.86	4.87659
11.87	4.87889
11.88	4.87692
11.89	4.88152
11.9	4.88152
11.91	4.88021
11.92	4.87363
11.93	4.86836
11.94	4.8881
11.95	4.88711
11.96	4.87856
11.97	4.88053
11.98	4.88514
11.99	4.88646
12	4.88284
12.01	4.88185
12.02	4.88119
12.03	4.8631
12.04	4.86606
12.05	4.86474
12.06	4.87396
12.07	4.88909
12.08	4.88415
12.09	4.88678
12.1	4.87231
12.11	4.88086
12.12	4.88152
12.13	4.86902
12.14	4.85915
12.15	4.86244
12.16	4.87001
12.17	4.87692
12.18	4.88152
12.19	4.87593
12.2	4.87494
12.21	4.87757
12.22	4.87593
12.23	4.87494
12.24	4.87001
12.25	4.87626
12.26	4.88053
12.27	4.86738
12.28	4.8733
12.29	4.87264
12.3	4.86803
12.31	4.86902
12.32	4.86672
12.33	4.87198
12.34	4.8631
12.35	4.87264
12.36	4.87297
12.37	4.85915
12.38	4.86211
12.39	4.86705
12.4	4.8631
12.41	4.85948
12.42	4.86639
12.43	4.85652
12.44	4.84698
12.45	4.85817
12.46	4.86178
12.47	4.85257
12.48	4.86573
12.49	4.86376
12.5	4.84665
12.51	4.86178
12.52	4.86343
12.53	4.85751
12.54	4.85422
12.55	4.86211
12.56	4.84534
12.57	4.8631
12.58	4.84698
12.59	4.85224
12.6	4.84205
12.61	4.85981
12.62	4.8552
12.63	4.85422
12.64	4.8529
12.65	4.85356
12.66	4.86573
12.67	4.86277
12.68	4.85027
12.69	4.85553
12.7	4.85224
12.71	4.85192
12.72	4.8483
12.73	4.84731
12.74	4.84961
12.75	4.85323
12.76	4.84238
12.77	4.85257
12.78	4.84205
12.79	4.84501
12.8	4.85488
12.81	4.84106
12.82	4.83053
12.83	4.85126
12.84	4.85027
12.85	4.85027
12.86	4.84731
12.87	4.84073
12.88	4.83481
12.89	4.83711
12.9	4.84172
12.91	4.84731
12.92	4.8404
12.93	4.83941
12.94	4.83711
12.95	4.83645
12.96	4.83547
12.97	4.83448
12.98	4.82922
12.99	4.84402
13	4.83678
13.01	4.83514
13.02	4.82889
13.03	4.83974
13.04	4.8404
13.05	4.82823
13.06	4.8404
13.07	4.84205
13.08	4.8279
13.09	4.84106
13.1	4.83152
13.11	4.83119
13.12	4.8279
13.13	4.8381
13.14	4.82395
13.15	4.83086
13.16	4.83843
13.17	4.83185
13.18	4.83547
13.19	4.82889
13.2	4.82494
13.21	4.82626
13.22	4.83974
13.23	4.83382
13.24	4.84106
13.25	4.83349
13.26	4.82231
13.27	4.82395
13.28	4.82823
13.29	4.84205
13.3	4.83316
13.31	4.83152
13.32	4.8302
13.33	4.83152
13.34	4.81902
13.35	4.82066
13.36	4.82823
13.37	4.82494
13.38	4.82691
13.39	4.82099
13.4	4.81573
13.41	4.82527
13.42	4.82231
13.43	4.81935
13.44	4.82198
13.45	4.82066
13.46	4.81935
13.47	4.82264
13.48	4.81803
13.49	4.8233
13.5	4.82494
13.51	4.82264
13.52	4.82362
13.53	4.80553
13.54	4.81244
13.55	4.82757
13.56	4.80257
13.57	4.82034
13.58	4.81474
13.59	4.82362
13.6	4.82165
13.61	4.81836
13.62	4.81968
13.63	4.80849
13.64	4.80652
13.65	4.81573
13.66	4.82132
13.67	4.80718
13.68	4.80981
13.69	4.80586
13.7	4.81441
13.71	4.82001
13.72	4.81178
13.73	4.8052
13.74	4.8029
13.75	4.81112
13.76	4.81869
13.77	4.8131
13.78	4.81343
13.79	4.80422
13.8	4.80783
13.81	4.81178
13.82	4.81014
13.83	4.81606
13.84	4.80126
13.85	4.80718
13.86	4.81869
13.87	4.80816
13.88	4.80323
13.89	4.79731
13.9	4.79665
13.91	4.8108
13.92	4.81803
13.93	4.81277
13.94	4.81672
13.95	4.81639
13.96	4.79501
13.97	4.81047
13.98	4.8108
13.99	4.80323
14	4.80191
14.01	4.80882
14.02	4.80751
14.03	4.80487
14.04	4.81014
14.05	4.80751
14.06	4.80981
14.07	4.80257
14.08	4.8052
14.09	4.80816
14.1	4.80356
14.11	4.80619
14.12	4.79599
14.13	4.80816
14.14	4.80685
14.15	4.80027
14.16	4.80619
14.17	4.80126
14.18	4.80915
14.19	4.80389
14.2	4.81047
14.21	4.81343
14.22	4.80619
14.23	4.80783
14.24	4.80816
14.25	4.80619
14.26	4.80356
14.27	4.80652
14.28	4.80257
14.29	4.80389
14.3	4.80323
14.31	4.80915
14.32	4.8052
14.33	4.80257
14.34	4.80224
14.35	4.79731
14.36	4.79468
14.37	4.8006
14.38	4.8006
14.39	4.80158
14.4	4.80685
14.41	4.7881
14.42	4.79632
14.43	4.81409
14.44	4.79533
14.45	4.79303
14.46	4.80487
14.47	4.79599
14.48	4.8006
14.49	4.79862
14.5	4.80816
14.51	4.79764
14.52	4.79961
14.53	4.8029
14.54	4.8108
14.55	4.80849
14.56	4.79961
14.57	4.80718
14.58	4.79007
14.59	4.7983
14.6	4.79994
14.61	4.79402
14.62	4.79336
14.63	4.79435
14.64	4.79336
14.65	4.79533
14.66	4.79928
14.67	4.78876
14.68	4.79665
14.69	4.79501
14.7	4.80619
14.71	4.79369
14.72	4.79435
14.73	4.80257
14.74	4.7881
14.75	4.78579
14.76	4.78645
14.77	4.7904
14.78	4.79007
14.79	4.78843
14.8	4.79073
14.81	4.78777
14.82	4.78547
14.83	4.77823
14.84	4.78086
14.85	4.78448
14.86	4.79237
14.87	4.78974
14.88	4.78185
14.89	4.77527
14.9	4.77625
14.91	4.77987
14.92	4.77889
14.93	4.77757
14.94	4.78777
14.95	4.78283
14.96	4.7779
14.97	4.77593
14.98	4.78744
14.99	4.78678
15	4.77691
15.01	4.79204
15.02	4.77987
15.03	4.77658
15.04	4.78448
15.05	4.78086
15.06	4.77823
15.07	4.78119
15.08	4.7779
15.09	4.78415
15.1	4.78678
15.11	4.77593
15.12	4.77625
15.13	4.78974
15.14	4.78481
15.15	4.77395
15.16	4.77625
15.17	4.7779
15.18	4.77856
15.19	4.77461
15.2	4.77823
15.21	4.78086
15.22	4.7802
15.23	4.77724
15.24	4.78777
15.25	4.7756
15.26	4.77
15.27	4.77395
15.28	4.77461
15.29	4.7756
15.3	4.77691
15.31	4.77527
15.32	4.77198
15.33	4.77165
15.34	4.77658
15.35	4.77329
15.36	4.77856
15.37	4.77132
15.38	4.76869
15.39	4.76968
15.4	4.7802
15.41	4.7756
15.42	4.77823
15.43	4.77099
15.44	4.77
15.45	4.76968
15.46	4.76211
15.47	4.76606
15.48	4.77297
15.49	4.77856
15.5	4.76737
15.51	4.77428
15.52	4.76869
15.53	4.77198
15.54	4.76869
15.55	4.78119
15.56	4.77724
15.57	4.77165
15.58	4.76704
15.59	4.76343
15.6	4.77198
15.61	4.76704
15.62	4.77231
15.63	4.76014
15.64	4.76474
15.65	4.77132
15.66	4.76902
15.67	4.76737
15.68	4.76145
15.69	4.7677
15.7	4.76474
15.71	4.77198
15.72	4.77658
15.73	4.78053
15.74	4.77231
15.75	4.77395
15.76	4.76441
15.77	4.77
15.78	4.7779
15.79	4.76737
15.8	4.75915
15.81	4.77099
15.82	4.77297
15.83	4.76606
15.84	4.77856
15.85	4.77297
15.86	4.7677
15.87	4.76704
15.88	4.75586
15.89	4.76277
15.9	4.77954
15.91	4.76606
15.92	4.76507
15.93	4.76343
15.94	4.76869
15.95	4.76935
15.96	4.77198
15.97	4.75981
15.98	4.76441
15.99	4.76441
16	4.75849
16.01	4.76079
16.02	4.77593
16.03	4.77329
16.04	4.76737
16.05	4.75915
16.06	4.76211
16.07	4.77329
16.08	4.76737
16.09	4.76178
16.1	4.75816
16.11	4.76639
16.12	4.76474
16.13	4.77198
16.14	4.76112
16.15	4.77
16.16	4.76441
16.17	4.76507
16.18	4.75454
16.19	4.76507
16.2	4.77494
16.21	4.75619
16.22	4.76014
16.23	4.76343
16.24	4.75356
16.25	4.75981
16.26	4.74994
16.27	4.76277
16.28	4.76079
16.29	4.74961
16.3	4.75652
16.31	4.76375
16.32	4.76375
16.33	4.75093
16.34	4.75356
16.35	4.7575
16.36	4.75191
16.37	4.75586
16.38	4.7506
16.39	4.75027
16.4	4.74764
16.41	4.74895
16.42	4.75125
16.43	4.7552
16.44	4.7506
16.45	4.74764
16.46	4.7506
16.47	4.75849
16.48	4.75158
16.49	4.7506
16.5	4.74862
16.51	4.7506
16.52	4.75421
16.53	4.76474
16.54	4.76079
16.55	4.75093
16.56	4.75356
16.57	4.74764
16.58	4.74764
16.59	4.74994
16.6	4.75685
16.61	4.75257
16.62	4.75586
16.63	4.75191
16.64	4.75685
16.65	4.75487
16.66	4.7575
16.67	4.75652
16.68	4.75816
16.69	4.75257
16.7	4.74796
16.71	4.75816
16.72	4.7506
16.73	4.74237
16.74	4.75389
16.75	4.75125
16.76	4.75191
16.77	4.74007
16.78	4.75356
16.79	4.75553
16.8	4.74764
16.81	4.7529
16.82	4.74994
16.83	4.74369
16.84	4.74796
16.85	4.74171
16.86	4.73974
16.87	4.74533
16.88	4.74829
16.89	4.74961
16.9	4.74171
16.91	4.73382
16.92	4.74764
16.93	4.74533
16.94	4.7427
16.95	4.74961
16.96	4.75652
16.97	4.74731
16.98	4.73612
16.99	4.74468
17	4.74468
17.01	4.73941
17.02	4.74468
17.03	4.75257
17.04	4.75125
17.05	4.74731
17.06	4.7427
17.07	4.7427
17.08	4.745
17.09	4.74106
17.1	4.74204
17.11	4.74829
17.12	4.74566
17.13	4.75685
17.14	4.74369
17.15	4.7381
17.16	4.74336
17.17	4.74862
17.18	4.75619
17.19	4.73645
17.2	4.73777
17.21	4.72987
17.22	4.74303
17.23	4.74533
17.24	4.7404
17.25	4.7381
17.26	4.75257
17.27	4.75125
17.28	4.74698
17.29	4.75093
17.3	4.7552
17.31	4.74764
17.32	4.74764
17.33	4.75093
17.34	4.75191
17.35	4.74303
17.36	4.74007
17.37	4.73974
17.38	4.74402
17.39	4.75125
17.4	4.74007
17.41	4.74599
17.42	4.74007
17.43	4.74139
17.44	4.74829
17.45	4.7427
17.46	4.745
17.47	4.74829
17.48	4.74336
17.49	4.73053
17.5	4.73283
17.51	4.74402
17.52	4.74994
17.53	4.73974
17.54	4.73875
17.55	4.74237
17.56	4.73579
17.57	4.73415
17.58	4.74237
17.59	4.74369
17.6	4.72856
17.61	4.74007
17.62	4.73185
17.63	4.74336
17.64	4.74007
17.65	4.73382
17.66	4.73777
17.67	4.73744
17.68	4.73514
17.69	4.73974
17.7	4.7325
17.71	4.74073
17.72	4.73645
17.73	4.74796
17.74	4.74698
17.75	4.74468
17.76	4.75454
17.77	4.74237
17.78	4.745
17.79	4.7552
17.8	4.74237
17.81	4.73612
17.82	4.74336
17.83	4.74599
17.84	4.74665
17.85	4.74566
17.86	4.74533
17.87	4.75389
17.88	4.73744
17.89	4.72921
17.9	4.74007
17.91	4.74764
17.92	4.74796
17.93	4.74139
17.94	4.7427
17.95	4.74402
17.96	4.73744
17.97	4.74928
17.98	4.74566
17.99	4.7381
18	4.74237
18.01	4.75553
18.02	4.7427
18.03	4.7279
18.04	4.73579
18.05	4.74303
18.06	4.73185
18.07	4.73217
18.08	4.74237
18.09	4.73908
18.1	4.73415
18.11	4.74336
18.12	4.74106
18.13	4.745
18.14	4.73645
18.15	4.7325
18.16	4.72494
18.17	4.72954
18.18	4.72724
18.19	4.73415
18.2	4.72263
18.21	4.73316
18.22	4.73579
18.23	4.73875
18.24	4.73481
18.25	4.73579
18.26	4.73777
18.27	4.72658
18.28	4.71902
18.29	4.72757
18.3	4.73645
18.31	4.7381
18.32	4.73678
18.33	4.72823
18.34	4.72066
18.35	4.7256
18.36	4.72757
18.37	4.72757
18.38	4.73217
18.39	4.73744
18.4	4.73612
18.41	4.73086
18.42	4.72889
18.43	4.73316
18.44	4.73349
18.45	4.72757
18.46	4.73382
18.47	4.72921
18.48	4.73678
18.49	4.73086
18.5	4.71935
18.51	4.72494
18.52	4.71638
18.53	4.73382
18.54	4.7279
18.55	4.72165
18.56	4.72625
18.57	4.72856
18.58	4.73842
18.59	4.72987
18.6	4.72132
18.61	4.73119
18.62	4.73415
18.63	4.70981
18.64	4.72625
18.65	4.73579
18.66	4.72987
18.67	4.72494
18.68	4.72296
18.69	4.72066
18.7	4.71803
18.71	4.72921
18.72	4.72428
18.73	4.73217
18.74	4.72823
18.75	4.71441
18.76	4.73842
18.77	4.71902
18.78	4.72987
18.79	4.72954
18.8	4.72527
18.81	4.72165
18.82	4.71869
18.83	4.72428
18.84	4.71803
18.85	4.72428
18.86	4.72296
18.87	4.7256
18.88	4.71606
18.89	4.72395
18.9	4.7302
18.91	4.71935
18.92	4.72066
18.93	4.72428
18.94	4.72362
18.95	4.72527
18.96	4.72691
18.97	4.72461
18.98	4.72132
18.99	4.72296
19	4.73283
19.01	4.72198
19.02	4.72757
19.03	4.72329
19.04	4.72954
19.05	4.72987
19.06	4.72296
19.07	4.72461
19.08	4.71573
19.09	4.72198
19.1	4.72592
19.11	4.72856
19.12	4.72066
19.13	4.71704
19.14	4.72823
19.15	4.72
19.16	4.72296
19.17	4.71902
19.18	4.71606
19.19	4.7154
19.2	4.71638
19.21	4.7154
19.22	4.72231
19.23	4.72033
19.24	4.72428
19.25	4.72757
19.26	4.72033
19.27	4.7177
19.28	4.72132
19.29	4.71869
19.3	4.72132
19.31	4.72757
19.32	4.7154
19.33	4.72395
19.34	4.72527
19.35	4.71803
19.36	4.71342
19.37	4.71408
19.38	4.71638
19.39	4.71013
19.4	4.71606
19.41	4.7177
19.42	4.71803
19.43	4.72033
19.44	4.72494
19.45	4.71935
19.46	4.71277
19.47	4.71277
19.48	4.71638
19.49	4.70948
19.5	4.71737
19.51	4.71967
19.52	4.72132
19.53	4.71342
19.54	4.72461
19.55	4.71836
19.56	4.72658
19.57	4.71704
19.58	4.71638
19.59	4.71606
19.6	4.71606
19.61	4.71013
19.62	4.71704
19.63	4.71737
19.64	4.71803
19.65	4.72033
19.66	4.70915
19.67	4.72165
19.68	4.70652
19.69	4.71244
19.7	4.71046
19.71	4.7154
19.72	4.7131
19.73	4.71079
19.74	4.71606
19.75	4.72856
19.76	4.71902
19.77	4.71474
19.78	4.71408
19.79	4.72329
19.8	4.71967
19.81	4.71277
19.82	4.72066
19.83	4.72165
19.84	4.72165
19.85	4.72033
19.86	4.70849
19.87	4.71079
19.88	4.72921
19.89	4.72132
19.9	4.70717
19.91	4.71375
19.92	4.71902
19.93	4.71704
19.94	4.72099
19.95	4.71935
19.96	4.71474
19.97	4.71013
19.98	4.7279
19.99	4.72823
20	4.71803
20.01	4.71869
20.02	4.71902
20.03	4.70816
20.04	4.7075
20.05	4.71869
20.06	4.7177
20.07	4.71277
20.08	4.70915
20.09	4.70783
20.1	4.71902
20.11	4.71737
20.12	4.71408
20.13	4.7131
20.14	4.70487
20.15	4.71046
20.16	4.7052
20.17	4.70388
20.18	4.71013
20.19	4.70158
20.2	4.71408
20.21	4.71145
20.22	4.71211
20.23	4.7131
20.24	4.7154
20.25	4.71441
20.26	4.71112
20.27	4.71244
20.28	4.7131
20.29	4.71441
20.3	4.70553
20.31	4.70783
20.32	4.69961
20.33	4.70684
20.34	4.70553
20.35	4.70487
20.36	4.71277
20.37	4.70816
20.38	4.7052
20.39	4.70454
20.4	4.70915
20.41	4.69467
20.42	4.70586
20.43	4.71902
20.44	4.71441
20.45	4.71638
20.46	4.71902
20.47	4.71277
20.48	4.69731
20.49	4.70981
20.5	4.70388
20.51	4.71474
20.52	4.71638
20.53	4.71046
20.54	4.70224
20.55	4.70553
20.56	4.71013
20.57	4.70652
20.58	4.70586
20.59	4.70454
20.6	4.70092
20.61	4.70553
20.62	4.70092
20.63	4.70158
20.64	4.70388
20.65	4.70684
20.66	4.70454
20.67	4.71671
20.68	4.70816
20.69	4.70717
20.7	4.70816
20.71	4.70652
20.72	4.69961
20.73	4.70454
20.74	4.71375
20.75	4.70454
20.76	4.70915
20.77	4.70915
20.78	4.71869
20.79	4.71211
20.8	4.70388
20.81	4.70717
20.82	4.70158
20.83	4.70849
20.84	4.71145
20.85	4.71671
20.86	4.71638
20.87	4.71375
20.88	4.70586
20.89	4.71178
20.9	4.71112
20.91	4.71474
20.92	4.70652
20.93	4.70421
20.94	4.70882
20.95	4.70948
20.96	4.71704
20.97	4.7029
20.98	4.70553
20.99	4.70553
21	4.70125
21.01	4.70257
21.02	4.70619
21.03	4.69434
21.04	4.7052
21.05	4.71375
21.06	4.70553
21.07	4.70586
21.08	4.70356
21.09	4.70356
21.1	4.71408
21.11	4.7052
21.12	4.70388
21.13	4.70684
21.14	4.71737
21.15	4.71145
21.16	4.70783
21.17	4.70849
21.18	4.7052
21.19	4.70586
21.2	4.70125
21.21	4.69533
21.22	4.7029
21.23	4.69763
21.24	4.70356
21.25	4.69698
21.26	4.69599
21.27	4.6927
21.28	4.70356
21.29	4.70586
21.3	4.7075
21.31	4.70783
21.32	4.70553
21.33	4.69698
21.34	4.69665
21.35	4.70783
21.36	4.69369
21.37	4.70158
21.38	4.70125
21.39	4.70224
21.4	4.70487
21.41	4.70454
21.42	4.69994
21.43	4.69994
21.44	4.69994
21.45	4.7052
21.46	4.70948
21.47	4.70783
21.48	4.70619
21.49	4.70684
21.5	4.70652
21.51	4.70454
21.52	4.70092
21.53	4.70586
21.54	4.71145
21.55	4.70027
21.56	4.70487
21.57	4.68974
21.58	4.69237
21.59	4.70915
21.6	4.69731
21.61	4.69434
21.62	4.70421
21.63	4.70553
21.64	4.70125
21.65	4.70421
21.66	4.69895
21.67	4.69632
21.68	4.69698
21.69	4.69698
21.7	4.69402
21.71	4.69402
21.72	4.69665
21.73	4.70323
21.74	4.7029
21.75	4.69105
21.76	4.68842
21.77	4.69303
21.78	4.70191
21.79	4.7029
21.8	4.70191
21.81	4.7131
21.82	4.69007
21.83	4.695
21.84	4.68941
21.85	4.69928
21.86	4.70059
21.87	4.6927
21.88	4.70092
21.89	4.70652
21.9	4.70421
21.91	4.70323
21.92	4.7052
21.93	4.70356
21.94	4.71112
21.95	4.70652
21.96	4.70388
21.97	4.70027
21.98	4.71112
21.99	4.69763
22	4.70619
22.01	4.70684
22.02	4.71211
22.03	4.69994
22.04	4.70388
22.05	4.69105
22.06	4.69073
22.07	4.68974
22.08	4.69073
22.09	4.70388
22.1	4.70717
22.11	4.70421
22.12	4.69698
22.13	4.695
22.14	4.70652
22.15	4.70849
22.16	4.69402
22.17	4.69763
22.18	4.695
22.19	4.70059
22.2	4.70586
22.21	4.70586
22.22	4.69796
22.23	4.695
22.24	4.70092
22.25	4.69928
22.26	4.69336
22.27	4.69698
22.28	4.70125
22.29	4.69763
22.3	4.69829
22.31	4.69434
22.32	4.695
22.33	4.70158
22.34	4.70125
22.35	4.69763
22.36	4.68612
22.37	4.69862
22.38	4.68908
22.39	4.69731
22.4	4.70059
22.41	4.69763
22.42	4.69566
22.43	4.69533
22.44	4.69928
22.45	4.70158
22.46	4.69402
22.47	4.69862
22.48	4.69961
22.49	4.69665
22.5	4.68612
22.51	4.68908
22.52	4.69171
22.53	4.6927
22.54	4.69073
22.55	4.68809
22.56	4.69599
22.57	4.69698
22.58	4.68744
22.59	4.68678
22.6	4.68316
22.61	4.695
22.62	4.68612
22.63	4.68349
22.64	4.68546
22.65	4.69073
22.66	4.6927
22.67	4.68579
22.68	4.68809
22.69	4.6927
22.7	4.69336
22.71	4.70191
22.72	4.68316
22.73	4.68809
22.74	4.68744
22.75	4.6802
22.76	4.68809
22.77	4.67921
22.78	4.68119
22.79	4.69073
22.8	4.67954
22.81	4.6848
22.82	4.68875
22.83	4.69303
22.84	4.68645
22.85	4.68711
22.86	4.68809
22.87	4.67888
22.88	4.68184
22.89	4.69665
22.9	4.69204
22.91	4.69007
22.92	4.68152
22.93	4.68974
22.94	4.68777
22.95	4.68546
22.96	4.69467
22.97	4.69533
22.98	4.69303
22.99	4.69237
23	4.68974
23.01	4.70356
23.02	4.70323
23.03	4.69336
23.04	4.68217
23.05	4.69895
23.06	4.69303
23.07	4.69402
23.08	4.69402
23.09	4.68645
23.1	4.68711
23.11	4.67855
23.12	4.69204
23.13	4.68513
23.14	4.69467
23.15	4.69237
23.16	4.68711
23.17	4.6927
23.18	4.68217
23.19	4.68777
23.2	4.68875
23.21	4.6904
23.22	4.70323
23.23	4.69796
23.24	4.69599
23.25	4.70421
23.26	4.69829
23.27	4.68842
23.28	4.69237
23.29	4.69599
23.3	4.68152
23.31	4.68448
23.32	4.69829
23.33	4.69204
23.34	4.69566
23.35	4.69237
23.36	4.69731
23.37	4.68875
23.38	4.68711
23.39	4.67691
23.4	4.68941
23.41	4.70027
23.42	4.69336
23.43	4.68974
23.44	4.67921
23.45	4.69204
23.46	4.68645
23.47	4.70257
23.48	4.68513
23.49	4.68053
23.5	4.69336
23.51	4.69336
23.52	4.69566
23.53	4.6927
23.54	4.67954
23.55	4.66967
23.56	4.68875
23.57	4.69138
23.58	4.69336
23.59	4.69665
23.6	4.67823
23.61	4.68382
23.62	4.68086
23.63	4.68053
23.64	4.67921
23.65	4.68941
23.66	4.69599
23.67	4.68382
23.68	4.68513
23.69	4.68612
23.7	4.68316
23.71	4.68053
23.72	4.67066
23.73	4.68382
23.74	4.68744
23.75	4.6904
23.76	4.6723
23.77	4.67921
23.78	4.66934
23.79	4.68152
23.8	4.68086
23.81	4.6848
23.82	4.68875
23.83	4.68777
23.84	4.68612
23.85	4.68184
23.86	4.67888
23.87	4.67592
23.88	4.68349
23.89	4.6927
23.9	4.6904
23.91	4.68513
23.92	4.68513
23.93	4.67428
23.94	4.67461
23.95	4.67987
23.96	4.67625
23.97	4.67592
23.98	4.67263
23.99	4.67691
24	4.67691
24.01	4.69007
24.02	4.68119
24.03	4.68875
24.04	4.67329
24.05	4.6723
24.06	4.68086
24.07	4.69105
24.08	4.67494
24.09	4.6802
24.1	4.68152
24.11	4.68415
24.12	4.68349
24.13	4.6904
24.14	4.68119
24.15	4.68744
24.16	4.68349
24.17	4.6848
24.18	4.68382
24.19	4.6848
24.2	4.68053
24.21	4.68448
24.22	4.68349
24.23	4.68382
24.24	4.68448
24.25	4.69171
24.26	4.68875
24.27	4.67823
24.28	4.68645
24.29	4.68184
24.3	4.68349
24.31	4.68283
24.32	4.69138
24.33	4.68448
24.34	4.68941
24.35	4.68415
24.36	4.68546
24.37	4.68908
24.38	4.69467
24.39	4.69073
24.4	4.69237
24.41	4.68513
24.42	4.66934
24.43	4.6848
24.44	4.69171
24.45	4.69007
24.46	4.69007
24.47	4.67461
24.48	4.68842
24.49	4.68217
24.5	4.68349
24.51	4.68711
24.52	4.68349
24.53	4.67724
24.54	4.68316
24.55	4.68612
24.56	4.68809
24.57	4.68415
24.58	4.68316
24.59	4.67954
24.6	4.67296
24.61	4.68842
24.62	4.68777
24.63	4.68382
24.64	4.6779
24.65	4.67888
24.66	4.68448
24.67	4.68382
24.68	4.68415
24.69	4.68612
24.7	4.69336
24.71	4.68415
24.72	4.67461
24.73	4.68777
24.74	4.68316
24.75	4.67527
24.76	4.68283
24.77	4.68184
24.78	4.69007
24.79	4.6825
24.8	4.67855
24.81	4.68546
24.82	4.67855
24.83	4.68645
24.84	4.67921
24.85	4.68217
24.86	4.67658
24.87	4.66836
24.88	4.67592
24.89	4.67461
24.9	4.67033
24.91	4.68809
24.92	4.68645
24.93	4.68382
24.94	4.67165
24.95	4.67165
24.96	4.66375
24.97	4.67198
24.98	4.67428
24.99	4.68152
25	4.67724
25.01	4.67461
25.02	4.67132
25.03	4.66573
25.04	4.67428
25.05	4.67888
25.06	4.67494
25.07	4.67527
25.08	4.67954
25.09	4.68579
25.1	4.67198
25.11	4.68119
25.12	4.6723
25.13	4.66869
25.14	4.67921
25.15	4.67954
25.16	4.68711
25.17	4.67559
25.18	4.66869
25.19	4.6723
25.2	4.67033
25.21	4.68086
25.22	4.67855
25.23	4.67329
25.24	4.67855
25.25	4.68316
25.26	4.67724
25.27	4.67592
25.28	4.67461
25.29	4.67987
25.3	4.67724
25.31	4.6802
25.32	4.6779
25.33	4.68448
25.34	4.67592
25.35	4.66737
25.36	4.6848
25.37	4.67823
25.38	4.67099
25.39	4.68382
25.4	4.6677
25.41	4.66704
25.42	4.66474
25.43	4.66408
25.44	4.68579
25.45	4.67592
25.46	4.67329
25.47	4.67888
25.48	4.68941
25.49	4.6802
25.5	4.67428
25.51	4.67165
25.52	4.67921
25.53	4.67494
25.54	4.68053
25.55	4.6802
25.56	4.68217
25.57	4.67921
25.58	4.67724
25.59	4.6848
25.6	4.68119
25.61	4.67099
25.62	4.68217
25.63	4.67395
25.64	4.67691
25.65	4.67625
25.66	4.68415
25.67	4.67855
25.68	4.67362
25.69	4.66474
25.7	4.6598
25.71	4.66211
25.72	4.67592
25.73	4.67494
25.74	4.6677
25.75	4.66671
25.76	4.68184
25.77	4.68546
25.78	4.68086
25.79	4.69204
25.8	4.6723
25.81	4.67823
25.82	4.66605
25.83	4.66474
25.84	4.6677
25.85	4.67559
25.86	4.67165
25.87	4.67691
25.88	4.67592
25.89	4.67823
25.9	4.67263
25.91	4.6779
25.92	4.68415
25.93	4.67296
25.94	4.67329
25.95	4.67855
25.96	4.66901
25.97	4.66638
25.98	4.67
25.99	4.68349
26	4.67165
26.01	4.68152
26.02	4.68152
26.03	4.67527
26.04	4.66211
26.05	4.66408
26.06	4.67263
26.07	4.67165
26.08	4.67855
26.09	4.67362
26.1	4.67
26.11	4.66934
26.12	4.67198
26.13	4.68283
26.14	4.68086
26.15	4.68316
26.16	4.67033
26.17	4.66375
26.18	4.66967
26.19	4.67428
26.2	4.67033
26.21	4.67724
26.22	4.68217
26.23	4.67099
26.24	4.6598
26.25	4.67527
26.26	4.68349
26.27	4.6723
26.28	4.67
26.29	4.67198
26.3	4.67494
26.31	4.67263
26.32	4.67724
26.33	4.67329
26.34	4.67559
26.35	4.67165
26.36	4.67625
26.37	4.68152
26.38	4.6802
26.39	4.67329
26.4	4.68349
26.41	4.67132
26.42	4.66901
26.43	4.66605
26.44	4.67099
26.45	4.66507
26.46	4.68316
26.47	4.68086
26.48	4.6802
26.49	4.6723
26.5	4.6779
26.51	4.67888
26.52	4.67823
26.53	4.67527
26.54	4.67855
26.55	4.68415
26.56	4.67198
26.57	4.67494
26.58	4.68612
26.59	4.68283
26.6	4.67559
26.61	4.66145
26.62	4.67066
26.63	4.67987
26.64	4.67263
26.65	4.67198
26.66	4.67
26.67	4.67198
26.68	4.66967
26.69	4.6677
26.7	4.67
26.71	4.67
26.72	4.6677
26.73	4.6723
26.74	4.66441
26.75	4.67362
26.76	4.66474
26.77	4.67559
26.78	4.66704
26.79	4.66441
26.8	4.67296
26.81	4.67559
26.82	4.66869
26.83	4.66967
26.84	4.67362
26.85	4.6723
26.86	4.65421
26.87	4.66967
26.88	4.67461
26.89	4.67263
26.9	4.6848
26.91	4.67296
26.92	4.65322
26.93	4.66605
26.94	4.67428
26.95	4.66934
26.96	4.66309
26.97	4.67461
26.98	4.66869
26.99	4.64994
27	4.66342
27.01	4.67165
27.02	4.66507
27.03	4.66474
27.04	4.66079
27.05	4.66671
27.06	4.66638
27.07	4.66013
27.08	4.66375
27.09	4.66638
27.1	4.66375
27.11	4.66967
27.12	4.66901
27.13	4.66704
27.14	4.66671
27.15	4.6677
27.16	4.66967
27.17	4.68119
27.18	4.68645
27.19	4.67428
27.2	4.66869
27.21	4.67263
27.22	4.6654
27.23	4.67066
27.24	4.6654
27.25	4.66178
27.26	4.66671
27.27	4.67559
27.28	4.67954
27.29	4.68119
27.3	4.67954
27.31	4.66342
27.32	4.67428
27.33	4.67658
27.34	4.67263
27.35	4.67033
27.36	4.67855
27.37	4.67
27.38	4.67592
27.39	4.68217
27.4	4.67658
27.41	4.67329
27.42	4.67592
27.43	4.6723
27.44	4.68053
27.45	4.66704
27.46	4.67099
27.47	4.66737
27.48	4.67888
27.49	4.6723
27.5	4.66967
27.51	4.68316
27.52	4.67921
27.53	4.67724
27.54	4.66901
27.55	4.67099
27.56	4.67395
27.57	4.67987
27.58	4.66573
27.59	4.66211
27.6	4.6779
27.61	4.67461
27.62	4.67099
27.63	4.66079
27.64	4.66474
27.65	4.67
27.66	4.66276
27.67	4.67099
27.68	4.65849
27.69	4.66507
27.7	4.66079
27.71	4.66046
27.72	4.66704
27.73	4.66145
27.74	4.66869
27.75	4.65816
27.76	4.66474
27.77	4.65224
27.78	4.64829
27.79	4.6598
27.8	4.66967
27.81	4.66507
27.82	4.66408
27.83	4.66408
27.84	4.66112
27.85	4.66244
27.86	4.65388
27.87	4.66441
27.88	4.66309
27.89	4.65125
27.9	4.66145
27.91	4.64763
27.92	4.66244
27.93	4.6654
27.94	4.66704
27.95	4.66211
27.96	4.66474
27.97	4.66638
27.98	4.66836
27.99	4.66342
28	4.6677
28.01	4.66178
28.02	4.66276
28.03	4.66112
28.04	4.66803
28.05	4.66375
28.06	4.66309
28.07	4.66671
28.08	4.65915
28.09	4.67329
28.1	4.66638
28.11	4.65421
28.12	4.65915
28.13	4.66967
28.14	4.66507
28.15	4.66342
28.16	4.6598
28.17	4.65355
28.18	4.66276
28.19	4.66211
28.2	4.65849
28.21	4.66342
28.22	4.67132
28.23	4.66244
28.24	4.6552
28.25	4.6598
28.26	4.66079
28.27	4.67724
28.28	4.66605
28.29	4.67296
28.3	4.66309
28.31	4.66638
28.32	4.66211
28.33	4.67132
28.34	4.66507
28.35	4.65783
28.36	4.66112
28.37	4.66638
28.38	4.6677
28.39	4.66112
28.4	4.65948
28.41	4.65388
28.42	4.66573
28.43	4.67066
28.44	4.66605
28.45	4.66441
28.46	4.64632
28.47	4.65355
28.48	4.66178
28.49	4.65882
28.5	4.66079
28.51	4.6575
28.52	4.65882
28.53	4.65882
28.54	4.65586
28.55	4.65487
28.56	4.6575
28.57	4.67296
28.58	4.65619
28.59	4.66573
28.6	4.66375
28.61	4.65619
28.62	4.65915
28.63	4.65257
28.64	4.65191
28.65	4.66309
28.66	4.6473
28.67	4.65059
28.68	4.65816
28.69	4.65224
28.7	4.65586
28.71	4.64665
28.72	4.65158
28.73	4.65684
28.74	4.6654
28.75	4.65915
28.76	4.66211
28.77	4.65882
28.78	4.65816
28.79	4.66638
28.8	4.66211
28.81	4.65915
28.82	4.65059
28.83	4.65553
28.84	4.64401
28.85	4.64862
28.86	4.6529
28.87	4.66046
28.88	4.65454
28.89	4.65454
28.9	4.66112
28.91	4.65915
28.92	4.65257
28.93	4.65257
28.94	4.65816
28.95	4.64895
28.96	4.65224
28.97	4.66046
28.98	4.65092
28.99	4.65948
29	4.65026
29.01	4.65651
29.02	4.65882
29.03	4.66309
29.04	4.64763
29.05	4.65257
29.06	4.65849
29.07	4.65783
29.08	4.64961
29.09	4.65717
29.1	4.66507
29.11	4.66013
29.12	4.65915
29.13	4.66244
29.14	4.64829
29.15	4.65553
29.16	4.64829
29.17	4.65322
29.18	4.6598
29.19	4.65125
29.2	4.66178
29.21	4.66375
29.22	4.65487
29.23	4.6575
29.24	4.66408
29.25	4.6598
29.26	4.65849
29.27	4.6575
29.28	4.64961
29.29	4.65915
29.3	4.65388
29.31	4.64994
29.32	4.65388
29.33	4.64862
29.34	4.6575
29.35	4.65849
29.36	4.64862
29.37	4.64895
29.38	4.65717
29.39	4.64961
29.4	4.65158
29.41	4.64632
29.42	4.65355
29.43	4.645
29.44	4.65651
29.45	4.66178
29.46	4.6529
29.47	4.64961
29.48	4.66244
29.49	4.65553
29.5	4.64566
29.51	4.65651
29.52	4.64961
29.53	4.66375
29.54	4.66178
29.55	4.65619
29.56	4.6529
29.57	4.6427
29.58	4.65191
29.59	4.65421
29.6	4.65158
29.61	4.65487
29.62	4.65619
29.63	4.64072
29.64	4.64862
29.65	4.64796
29.66	4.6598
29.67	4.66046
29.68	4.65586
29.69	4.64763
29.7	4.65257
29.71	4.64763
29.72	4.64434
29.73	4.65125
29.74	4.66079
29.75	4.66276
29.76	4.65816
29.77	4.64895
29.78	4.64961
29.79	4.65388
29.8	4.64961
29.81	4.64369
29.82	4.65553
29.83	4.66112
29.84	4.64994
29.85	4.65224
29.86	4.64829
29.87	4.6473
29.88	4.64533
29.89	4.65553
29.9	4.65125
29.91	4.65355
29.92	4.6473
29.93	4.65059
29.94	4.65257
29.95	4.65717
29.96	4.6404
29.97	4.63875
29.98	4.65355
29.99	4.64862
30	4.64862
