"BIO-KINE ASCII FILE"
"_COMMENT"	"MOS-500 Spectrometer"
"_COMMENT"	"Kinetics measurement"
"_COMMENT"	"Y Unit : Volt,  X Unit : s"
"_COMMENT"	"Excitation wavelength : 380 nm"
"_COMMENT"	"Fentes bandwidth =  1 nm"
"_COMMENT"	"HV= 1000V"
"_COMMENT"	"Timebase  1 =  .01 s   5001 pts"
"_SFM"	"SFM-400 /S  Advanced mode"
"_SFM"	"Ratio : S1: 2.5, S2: 0, S3: 0, S4: 1"
"_SFM"	"Content : S1: , S2: , S3: , S4:"
"_SFM"	"Concentration : S1: , S2: , S3: , S4:"
"_SFM"	"Total volume : 209 µl  Flow : 3.5 mL/s"
"_SFM"	"Acquisition start :  10 ms before stop"
"_SFM"	"cuve=FC-15, s1=10 ml , s2=10 ml , s3=10 ml , s4=1.9 ml"
"_UNITX"	"s"
"_UNITY"	"Volt"
"_DELTAX"	0
"_DATA"
1e-300	2.62421
0.01	2.63474
0.02	2.62191
0.03	2.65513
0.04	2.70546
0.05	2.69987
0.06	2.7331
0.07	2.72849
0.08	2.77093
0.09	2.76698
0.1	2.80613
0.11	2.78869
0.12	2.80974
0.13	2.82356
0.14	2.81764
0.15	2.80678
0.16	2.79856
0.17	2.81271
0.18	2.81073
0.19	2.82619
0.2	2.8331
0.21	2.84659
0.22	2.81599
0.23	2.83277
0.24	2.81632
0.25	2.84659
0.26	2.84034
0.27	2.85054
0.28	2.84132
0.29	2.83409
0.3	2.83343
0.31	2.83146
0.32	2.83014
0.33	2.82389
0.34	2.82685
0.35	2.85251
0.36	2.83277
0.37	2.84692
0.38	2.84231
0.39	2.83475
0.4	2.85975
0.41	2.83573
0.42	2.84922
0.43	2.84988
0.44	2.83705
0.45	2.84725
0.46	2.83672
0.47	2.82817
0.48	2.86271
0.49	2.84165
0.5	2.85317
0.51	2.84988
0.52	2.83376
0.53	2.83869
0.54	2.81994
0.55	2.84889
0.56	2.83639
0.57	2.841
0.58	2.83014
0.59	2.85547
0.6	2.86567
0.61	2.85744
0.62	2.83113
0.63	2.84034
0.64	2.83014
0.65	2.81073
0.66	2.81961
0.67	2.81435
0.68	2.83507
0.69	2.80415
0.7	2.82323
0.71	2.84363
0.72	2.82521
0.73	2.85975
0.74	2.87948
0.75	2.8706
0.76	2.81238
0.77	2.84593
0.78	2.85382
0.79	2.80415
0.8	2.8354
0.81	2.8206
0.82	2.8229
0.83	2.84297
0.84	2.7979
0.85	2.80876
0.86	2.85942
0.87	2.85514
0.88	2.84856
0.89	2.86304
0.9	2.84363
0.91	2.8229
0.92	2.84461
0.93	2.84626
0.94	2.82521
0.95	2.81896
0.96	2.83803
0.97	2.85317
0.98	2.82553
0.99	2.81402
1	2.83113
1.01	2.81698
1.02	2.83244
1.03	2.85646
1.04	2.82488
1.05	2.83014
1.06	2.83014
1.07	2.83639
1.08	2.82521
1.09	2.80843
1.1	2.83277
1.11	2.83902
1.12	2.81665
1.13	2.81994
1.14	2.81238
1.15	2.841
1.16	2.80448
1.17	2.78211
1.18	2.80711
1.19	2.81402
1.2	2.84198
1.21	2.82224
1.22	2.81698
1.23	2.82751
1.24	2.83738
1.25	2.83014
1.26	2.83014
1.27	2.80547
1.28	2.80185
1.29	2.81205
1.3	2.83705
1.31	2.81238
1.32	2.80086
1.33	2.8206
1.34	2.82685
1.35	2.84231
1.36	2.82652
1.37	2.84461
1.38	2.82915
1.39	2.80645
1.4	2.8479
1.41	2.82126
1.42	2.81896
1.43	2.81797
1.44	2.82521
1.45	2.85514
1.46	2.81797
1.47	2.82553
1.48	2.8206
1.49	2.78178
1.5	2.81402
1.51	2.82521
1.52	2.81007
1.53	2.82652
1.54	2.8058
1.55	2.84264
1.56	2.82718
1.57	2.85218
1.58	2.83211
1.59	2.81665
1.6	2.84823
1.61	2.83475
1.62	2.841
1.63	2.82685
1.64	2.8104
1.65	2.83047
1.66	2.83376
1.67	2.83376
1.68	2.81764
1.69	2.84396
1.7	2.83639
1.71	2.82521
1.72	2.81567
1.73	2.82027
1.74	2.80645
1.75	2.79889
1.76	2.81731
1.77	2.82126
1.78	2.79593
1.79	2.81896
1.8	2.78672
1.81	2.79066
1.82	2.82817
1.83	2.79757
1.84	2.78902
1.85	2.79724
1.86	2.82422
1.87	2.82553
1.88	2.8104
1.89	2.82553
1.9	2.81402
1.91	2.8229
1.92	2.82159
1.93	2.81797
1.94	2.81501
1.95	2.82882
1.96	2.81007
1.97	2.83113
1.98	2.83277
1.99	2.7956
2	2.81567
2.01	2.81961
2.02	2.8104
2.03	2.81172
2.04	2.79757
2.05	2.77586
2.06	2.82619
2.07	2.8183
2.08	2.84593
2.09	2.83014
2.1	2.82685
2.11	2.83047
2.12	2.85481
2.13	2.84132
2.14	2.82224
2.15	2.81599
2.16	2.8229
2.17	2.78145
2.18	2.81599
2.19	2.84231
2.2	2.81665
2.21	2.80909
2.22	2.8081
2.23	2.82093
2.24	2.8433
2.25	2.84692
2.26	2.84659
2.27	2.83507
2.28	2.8229
2.29	2.81106
2.3	2.79955
2.31	2.8229
2.32	2.85942
2.33	2.79461
2.34	2.7627
2.35	2.79132
2.36	2.80843
2.37	2.80843
2.38	2.78606
2.39	2.82455
2.4	2.8081
2.41	2.81534
2.42	2.8206
2.43	2.85613
2.44	2.80613
2.45	2.80415
2.46	2.81139
2.47	2.82586
2.48	2.81632
2.49	2.80152
2.5	2.76665
2.51	2.78869
2.52	2.79527
2.53	2.83803
2.54	2.85613
2.55	2.81435
2.56	2.80613
2.57	2.79724
2.58	2.77882
2.59	2.79527
2.6	2.80744
2.61	2.81139
2.62	2.79724
2.63	2.80777
2.64	2.79034
2.65	2.82159
2.66	2.8058
2.67	2.81435
2.68	2.81271
2.69	2.81336
2.7	2.81238
2.71	2.80119
2.72	2.8081
2.73	2.82159
2.74	2.80086
2.75	2.80876
2.76	2.80744
2.77	2.78178
2.78	2.8183
2.79	2.79724
2.8	2.79889
2.81	2.80317
2.82	2.7979
2.83	2.78113
2.84	2.78606
2.85	2.79198
2.86	2.78902
2.87	2.79034
2.88	2.79856
2.89	2.80218
2.9	2.80481
2.91	2.80711
2.92	2.7808
2.93	2.81402
2.94	2.81764
2.95	2.78902
2.96	2.79823
2.97	2.78047
2.98	2.79066
2.99	2.8081
3	2.78507
3.01	2.81369
3.02	2.82257
3.03	2.80152
3.04	2.78244
3.05	2.7877
3.06	2.83113
3.07	2.82192
3.08	2.7933
3.09	2.81336
3.1	2.78211
3.11	2.77422
3.12	2.76764
3.13	2.78606
3.14	2.77915
3.15	2.76599
3.16	2.75843
3.17	2.78474
3.18	2.80777
3.19	2.78145
3.2	2.78343
3.21	2.80086
3.22	2.80843
3.23	2.81731
3.24	2.81567
3.25	2.79626
3.26	2.80185
3.27	2.80744
3.28	2.79001
3.29	2.79231
3.3	2.78606
3.31	2.80284
3.32	2.81731
3.33	2.80645
3.34	2.79165
3.35	2.81106
3.36	2.78441
3.37	2.81632
3.38	2.81534
3.39	2.80514
3.4	2.78738
3.41	2.76172
3.42	2.78639
3.43	2.79494
3.44	2.81797
3.45	2.80711
3.46	2.80777
3.47	2.80777
3.48	2.77356
3.49	2.78376
3.5	2.74823
3.51	2.76237
3.52	2.77027
3.53	2.81303
3.54	2.80284
3.55	2.79165
3.56	2.79724
3.57	2.77093
3.58	2.77323
3.59	2.77619
3.6	2.77619
3.61	2.79066
3.62	2.78803
3.63	2.80909
3.64	2.80218
3.65	2.78606
3.66	2.77718
3.67	2.80909
3.68	2.79757
3.69	2.77948
3.7	2.78014
3.71	2.78441
3.72	2.79626
3.73	2.76895
3.74	2.79034
3.75	2.78738
3.76	2.78474
3.77	2.75711
3.78	2.77389
3.79	2.81303
3.8	2.77586
3.81	2.80349
3.82	2.80119
3.83	2.78639
3.84	2.74955
3.85	2.77224
3.86	2.78178
3.87	2.8285
3.88	2.81731
3.89	2.77126
3.9	2.77652
3.91	2.79001
3.92	2.79297
3.93	2.7604
3.94	2.77685
3.95	2.77784
3.96	2.7854
3.97	2.82619
3.98	2.81731
3.99	2.76895
4	2.78441
4.01	2.79297
4.02	2.80185
4.03	2.81665
4.04	2.75382
4.05	2.77981
4.06	2.79626
4.07	2.80119
4.08	2.79692
4.09	2.77685
4.1	2.7502
4.11	2.78277
4.12	2.78935
4.13	2.79757
4.14	2.78803
4.15	2.78211
4.16	2.77356
4.17	2.77915
4.18	2.73145
4.19	2.74132
4.2	2.78277
4.21	2.76928
4.22	2.76402
4.23	2.75908
4.24	2.80448
4.25	2.79428
4.26	2.80744
4.27	2.80909
4.28	2.78507
4.29	2.75843
4.3	2.78968
4.31	2.77126
4.32	2.77422
4.33	2.78705
4.34	2.80349
4.35	2.81007
4.36	2.80876
4.37	2.75908
4.38	2.76566
4.39	2.77882
4.4	2.80876
4.41	2.79922
4.42	2.76698
4.43	2.7752
4.44	2.7604
4.45	2.78836
4.46	2.77093
4.47	2.79264
4.48	2.79363
4.49	2.7831
4.5	2.79626
4.51	2.80711
4.52	2.75612
4.53	2.8081
4.54	2.79988
4.55	2.80909
4.56	2.79231
4.57	2.77356
4.58	2.73836
4.59	2.77224
4.6	2.79198
4.61	2.77882
4.62	2.77882
4.63	2.79527
4.64	2.77422
4.65	2.76468
4.66	2.79264
4.67	2.79165
4.68	2.78836
4.69	2.79461
4.7	2.79132
4.71	2.80086
4.72	2.77027
4.73	2.75777
4.74	2.77027
4.75	2.76599
4.76	2.78738
4.77	2.76106
4.78	2.77191
4.79	2.76566
4.8	2.73704
4.81	2.76139
4.82	2.78869
4.83	2.78441
4.84	2.77455
4.85	2.79132
4.86	2.82126
4.87	2.81896
4.88	2.75941
4.89	2.75119
4.9	2.78244
4.91	2.78113
4.92	2.78507
4.93	2.76468
4.94	2.79692
4.95	2.7627
4.96	2.75744
4.97	2.74856
4.98	2.77751
4.99	2.77126
5	2.79264
5.01	2.79297
5.02	2.81369
5.03	2.77849
5.04	2.75218
5.05	2.75843
5.06	2.77224
5.07	2.79428
5.08	2.79626
5.09	2.76895
5.1	2.75382
5.11	2.72454
5.12	2.79066
5.13	2.77553
5.14	2.76797
5.15	2.77455
5.16	2.76566
5.17	2.76566
5.18	2.76106
5.19	2.76172
5.2	2.79494
5.21	2.78047
5.22	2.7627
5.23	2.76928
5.24	2.76468
5.25	2.79659
5.26	2.77718
5.27	2.77586
5.28	2.75481
5.29	2.77027
5.3	2.79001
5.31	2.75941
5.32	2.78211
5.33	2.74724
5.34	2.7729
5.35	2.82586
5.36	2.80876
5.37	2.79823
5.38	2.74461
5.39	2.74033
5.4	2.79395
5.41	2.77027
5.42	2.76797
5.43	2.74922
5.44	2.74955
5.45	2.78738
5.46	2.77093
5.47	2.75382
5.48	2.75777
5.49	2.75218
5.5	2.79001
5.51	2.77586
5.52	2.77553
5.53	2.77224
5.54	2.76106
5.55	2.75908
5.56	2.7808
5.57	2.78705
5.58	2.75744
5.59	2.72257
5.6	2.77586
5.61	2.79395
5.62	2.76073
5.63	2.80415
5.64	2.78606
5.65	2.72948
5.66	2.7604
5.67	2.7808
5.68	2.77389
5.69	2.77323
5.7	2.77455
5.71	2.75843
5.72	2.79363
5.73	2.76501
5.74	2.77784
5.75	2.7956
5.76	2.78836
5.77	2.80514
5.78	2.76895
5.79	2.79856
5.8	2.77487
5.81	2.76007
5.82	2.79231
5.83	2.75777
5.84	2.7331
5.85	2.75777
5.86	2.76468
5.87	2.76994
5.88	2.77323
5.89	2.78507
5.9	2.80349
5.91	2.76205
5.92	2.77784
5.93	2.78244
5.94	2.7558
5.95	2.75612
5.96	2.77619
5.97	2.7979
5.98	2.77948
5.99	2.78672
6	2.79165
6.01	2.76764
6.02	2.75283
6.03	2.78803
6.04	2.75941
6.05	2.73836
6.06	2.78376
6.07	2.7877
6.08	2.77027
6.09	2.78376
6.1	2.78672
6.11	2.7877
6.12	2.77553
6.13	2.79363
6.14	2.77356
6.15	2.72553
6.16	2.7558
6.17	2.78836
6.18	2.78343
6.19	2.79198
6.2	2.75711
6.21	2.78409
6.22	2.81007
6.23	2.76797
6.24	2.76237
6.25	2.73639
6.26	2.74001
6.27	2.7831
6.28	2.79692
6.29	2.75711
6.3	2.75876
6.31	2.72816
6.32	2.7331
6.33	2.79428
6.34	2.79165
6.35	2.77455
6.36	2.76501
6.37	2.77816
6.38	2.76336
6.39	2.76731
6.4	2.79034
6.41	2.78047
6.42	2.74527
6.43	2.76928
6.44	2.77619
6.45	2.77389
6.46	2.75843
6.47	2.74099
6.48	2.76632
6.49	2.7752
6.5	2.77685
6.51	2.78573
6.52	2.7683
6.53	2.78211
6.54	2.77915
6.55	2.7729
6.56	2.76501
6.57	2.7627
6.58	2.77455
6.59	2.77586
6.6	2.80251
6.61	2.75514
6.62	2.74461
6.63	2.7581
6.64	2.77619
6.65	2.7581
6.66	2.75843
6.67	2.75711
6.68	2.7581
6.69	2.80974
6.7	2.77882
6.71	2.77487
6.72	2.7627
6.73	2.77652
6.74	2.77586
6.75	2.76534
6.76	2.78639
6.77	2.79823
6.78	2.76862
6.79	2.77093
6.8	2.74955
6.81	2.72915
6.82	2.76961
6.83	2.76566
6.84	2.73737
6.85	2.73869
6.86	2.74132
6.87	2.74066
6.88	2.75744
6.89	2.77849
6.9	2.76764
6.91	2.75876
6.92	2.74658
6.93	2.7808
6.94	2.73704
6.95	2.75251
6.96	2.75843
6.97	2.75711
6.98	2.77685
6.99	2.74165
7	2.73902
7.01	2.76566
7.02	2.77389
7.03	2.75086
7.04	2.74264
7.05	2.75974
7.06	2.77981
7.07	2.74593
7.08	2.74889
7.09	2.75119
7.1	2.76632
7.11	2.77224
7.12	2.75086
7.13	2.73737
7.14	2.76172
7.15	2.79363
7.16	2.7933
7.17	2.79198
7.18	2.78902
7.19	2.75777
7.2	2.77487
7.21	2.74658
7.22	2.71336
7.23	2.75382
7.24	2.76468
7.25	2.77915
7.26	2.76369
7.27	2.77981
7.28	2.80843
7.29	2.78606
7.3	2.7729
7.31	2.77948
7.32	2.7456
7.33	2.73079
7.34	2.78376
7.35	2.7933
7.36	2.74461
7.37	2.75876
7.38	2.74099
7.39	2.73672
7.4	2.75843
7.41	2.78902
7.42	2.76303
7.43	2.75908
7.44	2.75448
7.45	2.74889
7.46	2.76731
7.47	2.77027
7.48	2.74658
7.49	2.74264
7.5	2.76501
7.51	2.79198
7.52	2.74593
7.53	2.74297
7.54	2.72915
7.55	2.7377
7.56	2.75645
7.57	2.73935
7.58	2.75152
7.59	2.74198
7.6	2.7558
7.61	2.72093
7.62	2.73672
7.63	2.76139
7.64	2.74889
7.65	2.75612
7.66	2.7581
7.67	2.75974
7.68	2.74264
7.69	2.75777
7.7	2.7479
7.71	2.73935
7.72	2.74231
7.73	2.75547
7.74	2.75711
7.75	2.73672
7.76	2.7331
7.77	2.74527
7.78	2.76073
7.79	2.75514
7.8	2.7479
7.81	2.73869
7.82	2.74001
7.83	2.75053
7.84	2.73244
7.85	2.74297
7.86	2.76501
7.87	2.75481
7.88	2.77224
7.89	2.78968
7.9	2.7956
7.91	2.76895
7.92	2.77586
7.93	2.77948
7.94	2.75185
7.95	2.77981
7.96	2.75316
7.97	2.75612
7.98	2.76797
7.99	2.76007
8	2.74461
8.01	2.74198
8.02	2.76369
8.03	2.7729
8.04	2.76106
8.05	2.76632
8.06	2.77652
8.07	2.75876
8.08	2.74823
8.09	2.7377
8.1	2.75711
8.11	2.75876
8.12	2.8002
8.13	2.75678
8.14	2.75481
8.15	2.77159
8.16	2.74494
8.17	2.74198
8.18	2.73408
8.19	2.74066
8.2	2.7502
8.21	2.75415
8.22	2.75448
8.23	2.77652
8.24	2.77455
8.25	2.79099
8.26	2.76073
8.27	2.75152
8.28	2.73507
8.29	2.77027
8.3	2.75448
8.31	2.79461
8.32	2.76303
8.33	2.73507
8.34	2.7683
8.35	2.77915
8.36	2.77553
8.37	2.75251
8.38	2.73112
8.39	2.73869
8.4	2.79593
8.41	2.72882
8.42	2.72093
8.43	2.75908
8.44	2.74955
8.45	2.7558
8.46	2.75514
8.47	2.75448
8.48	2.73474
8.49	2.74329
8.5	2.7729
8.51	2.74593
8.52	2.76073
8.53	2.77191
8.54	2.76895
8.55	2.76336
8.56	2.75251
8.57	2.75251
8.58	2.74428
8.59	2.72191
8.6	2.7627
8.61	2.74264
8.62	2.75547
8.63	2.78113
8.64	2.75876
8.65	2.73902
8.66	2.74066
8.67	2.74329
8.68	2.7456
8.69	2.72125
8.7	2.75218
8.71	2.7604
8.72	2.75777
8.73	2.73968
8.74	2.75283
8.75	2.75086
8.76	2.75645
8.77	2.73244
8.78	2.75119
8.79	2.75908
8.8	2.77027
8.81	2.73573
8.82	2.75974
8.83	2.7706
8.84	2.76961
8.85	2.73244
8.86	2.74889
8.87	2.75645
8.88	2.76468
8.89	2.76566
8.9	2.7252
8.91	2.77553
8.92	2.75448
8.93	2.74757
8.94	2.75119
8.95	2.76139
8.96	2.76731
8.97	2.77948
8.98	2.75908
8.99	2.75251
9	2.76632
9.01	2.75152
9.02	2.74823
9.03	2.76336
9.04	2.75316
9.05	2.75678
9.06	2.74066
9.07	2.77191
9.08	2.76303
9.09	2.74362
9.1	2.73803
9.11	2.71731
9.12	2.76599
9.13	2.75678
9.14	2.75777
9.15	2.7729
9.16	2.76139
9.17	2.75645
9.18	2.77652
9.19	2.73737
9.2	2.73573
9.21	2.74362
9.22	2.76172
9.23	2.74889
9.24	2.73869
9.25	2.7456
9.26	2.73211
9.27	2.76172
9.28	2.7377
9.29	2.79066
9.3	2.77224
9.31	2.75251
9.32	2.75218
9.33	2.73704
9.34	2.75711
9.35	2.73047
9.36	2.75053
9.37	2.75316
9.38	2.76336
9.39	2.7854
9.4	2.79626
9.41	2.77356
9.42	2.74165
9.43	2.75218
9.44	2.75448
9.45	2.76237
9.46	2.76073
9.47	2.76106
9.48	2.76303
9.49	2.74165
9.5	2.73178
9.51	2.75876
9.52	2.76303
9.53	2.76139
9.54	2.77553
9.55	2.7808
9.56	2.74626
9.57	2.75777
9.58	2.74658
9.59	2.76534
9.6	2.73112
9.61	2.73277
9.62	2.75744
9.63	2.77619
9.64	2.72257
9.65	2.74264
9.66	2.79066
9.67	2.74329
9.68	2.74724
9.69	2.75086
9.7	2.73606
9.71	2.74856
9.72	2.76007
9.73	2.74922
9.74	2.75777
9.75	2.74955
9.76	2.77849
9.77	2.74264
9.78	2.76435
9.79	2.74099
9.8	2.72454
9.81	2.7354
9.82	2.6956
9.83	2.77718
9.84	2.75283
9.85	2.74757
9.86	2.72718
9.87	2.76698
9.88	2.77882
9.89	2.7877
9.9	2.7479
9.91	2.72553
9.92	2.74329
9.93	2.73902
9.94	2.76172
9.95	2.7479
9.96	2.74823
9.97	2.75711
9.98	2.74362
9.99	2.74395
10	2.75908
10.01	2.76566
10.02	2.72454
10.03	2.7275
10.04	2.75645
10.05	2.74658
10.06	2.75152
10.07	2.75777
10.08	2.72454
10.09	2.73474
10.1	2.72422
10.11	2.74001
10.12	2.76665
10.13	2.74231
10.14	2.73441
10.15	2.74823
10.16	2.76007
10.17	2.77126
10.18	2.73672
10.19	2.73836
10.2	2.72915
10.21	2.73803
10.22	2.75053
10.23	2.76007
10.24	2.7581
10.25	2.78672
10.26	2.78244
10.27	2.75415
10.28	2.73704
10.29	2.73968
10.3	2.72685
10.31	2.7377
10.32	2.72783
10.33	2.72487
10.34	2.72816
10.35	2.78211
10.36	2.77422
10.37	2.73935
10.38	2.72454
10.39	2.7331
10.4	2.72487
10.41	2.77027
10.42	2.76534
10.43	2.74691
10.44	2.70481
10.45	2.73935
10.46	2.71698
10.47	2.74428
10.48	2.74955
10.49	2.75053
10.5	2.7502
10.51	2.78968
10.52	2.76764
10.53	2.77027
10.54	2.76369
10.55	2.76007
10.56	2.72849
10.57	2.73343
10.58	2.75514
10.59	2.73376
10.6	2.71665
10.61	2.73244
10.62	2.74033
10.63	2.72323
10.64	2.73178
10.65	2.76139
10.66	2.76665
10.67	2.75448
10.68	2.72981
10.69	2.73408
10.7	2.76501
10.71	2.73343
10.72	2.7377
10.73	2.71073
10.74	2.71829
10.75	2.75448
10.76	2.7354
10.77	2.74099
10.78	2.7252
10.79	2.73869
10.8	2.74626
10.81	2.75547
10.82	2.73968
10.83	2.73441
10.84	2.74461
10.85	2.76731
10.86	2.78606
10.87	2.78244
10.88	2.74527
10.89	2.73277
10.9	2.75053
10.91	2.70908
10.92	2.74001
10.93	2.74066
10.94	2.75185
10.95	2.71468
10.96	2.72553
10.97	2.74955
10.98	2.75908
10.99	2.73441
11	2.70546
11.01	2.75251
11.02	2.75908
11.03	2.72356
11.04	2.7229
11.05	2.72487
11.06	2.74362
11.07	2.75876
11.08	2.76172
11.09	2.76501
11.1	2.75086
11.11	2.76106
11.12	2.73211
11.13	2.73935
11.14	2.73606
11.15	2.73441
11.16	2.7206
11.17	2.73639
11.18	2.75152
11.19	2.71895
11.2	2.7275
11.21	2.75514
11.22	2.73408
11.23	2.73047
11.24	2.74987
11.25	2.73408
11.26	2.72191
11.27	2.74099
11.28	2.77455
11.29	2.75481
11.3	2.75711
11.31	2.71961
11.32	2.72948
11.33	2.75612
11.34	2.74132
11.35	2.71336
11.36	2.72849
11.37	2.77784
11.38	2.74198
11.39	2.74987
11.4	2.74593
11.41	2.76862
11.42	2.76402
11.43	2.75876
11.44	2.71435
11.45	2.69724
11.46	2.74461
11.47	2.76566
11.48	2.75283
11.49	2.75053
11.5	2.72948
11.51	2.69954
11.52	2.74066
11.53	2.73112
11.54	2.74231
11.55	2.70875
11.56	2.72389
11.57	2.75744
11.58	2.74626
11.59	2.74494
11.6	2.74264
11.61	2.72257
11.62	2.73672
11.63	2.75119
11.64	2.73639
11.65	2.74922
11.66	2.75908
11.67	2.7581
11.68	2.73639
11.69	2.72027
11.7	2.74395
11.71	2.76632
11.72	2.74264
11.73	2.75152
11.74	2.74297
11.75	2.74593
11.76	2.75251
11.77	2.71797
11.78	2.73178
11.79	2.74889
11.8	2.75152
11.81	2.73737
11.82	2.72948
11.83	2.74132
11.84	2.72093
11.85	2.72586
11.86	2.74461
11.87	2.73573
11.88	2.73474
11.89	2.7252
11.9	2.7275
11.91	2.73836
11.92	2.74362
11.93	2.73737
11.94	2.72389
11.95	2.74955
11.96	2.76566
11.97	2.74757
11.98	2.71928
11.99	2.77553
12	2.7604
12.01	2.72356
12.02	2.73935
12.03	2.76534
12.04	2.74297
12.05	2.73672
12.06	2.71171
12.07	2.73935
12.08	2.72356
12.09	2.75218
12.1	2.76073
12.11	2.71369
12.12	2.71402
12.13	2.72619
12.14	2.74165
12.15	2.74856
12.16	2.73047
12.17	2.71369
12.18	2.73803
12.19	2.73047
12.2	2.76205
12.21	2.73902
12.22	2.74001
12.23	2.73112
12.24	2.74033
12.25	2.7502
12.26	2.74658
12.27	2.72882
12.28	2.72027
12.29	2.74823
12.3	2.73145
12.31	2.72816
12.32	2.76632
12.33	2.75711
12.34	2.72586
12.35	2.73376
12.36	2.72948
12.37	2.77718
12.38	2.77619
12.39	2.73704
12.4	2.71566
12.41	2.71698
12.42	2.75481
12.43	2.73672
12.44	2.75448
12.45	2.72882
12.46	2.74461
12.47	2.74165
12.48	2.72553
12.49	2.72981
12.5	2.7354
12.51	2.73277
12.52	2.71994
12.53	2.74494
12.54	2.75152
12.55	2.74198
12.56	2.74626
12.57	2.74329
12.58	2.74198
12.59	2.73507
12.6	2.72487
12.61	2.73178
12.62	2.73408
12.63	2.75119
12.64	2.76501
12.65	2.71829
12.66	2.73277
12.67	2.7502
12.68	2.71533
12.69	2.73014
12.7	2.77257
12.71	2.77751
12.72	2.7354
12.73	2.74264
12.74	2.72915
12.75	2.73178
12.76	2.74329
12.77	2.74099
12.78	2.74658
12.79	2.73441
12.8	2.69362
12.81	2.68013
12.82	2.69
12.83	2.76599
12.84	2.71764
12.85	2.6979
12.86	2.72356
12.87	2.73145
12.88	2.74297
12.89	2.75448
12.9	2.72093
12.91	2.73573
12.92	2.75744
12.93	2.73441
12.94	2.72323
12.95	2.71468
12.96	2.74626
12.97	2.74264
12.98	2.75678
12.99	2.75843
13	2.7377
13.01	2.73803
13.02	2.70711
13.03	2.73211
13.04	2.73737
13.05	2.75481
13.06	2.74658
13.07	2.72257
13.08	2.7354
13.09	2.74395
13.1	2.74724
13.11	2.73968
13.12	2.73376
13.13	2.76106
13.14	2.72454
13.15	2.7206
13.16	2.71665
13.17	2.73047
13.18	2.7275
13.19	2.72948
13.2	2.73737
13.21	2.74757
13.22	2.72487
13.23	2.72257
13.24	2.72487
13.25	2.72783
13.26	2.75645
13.27	2.71764
13.28	2.73902
13.29	2.74494
13.3	2.71599
13.31	2.72981
13.32	2.74132
13.33	2.74527
13.34	2.73244
13.35	2.73573
13.36	2.74922
13.37	2.74428
13.38	2.76731
13.39	2.74658
13.4	2.75152
13.41	2.74362
13.42	2.69494
13.43	2.72553
13.44	2.7581
13.45	2.74264
13.46	2.70974
13.47	2.75514
13.48	2.71402
13.49	2.71369
13.5	2.7502
13.51	2.70678
13.52	2.76731
13.53	2.72948
13.54	2.70843
13.55	2.7377
13.56	2.68737
13.57	2.72718
13.58	2.70908
13.59	2.75283
13.6	2.73935
13.61	2.71106
13.62	2.69823
13.63	2.72257
13.64	2.76106
13.65	2.7604
13.66	2.7229
13.67	2.71829
13.68	2.70744
13.69	2.72685
13.7	2.74099
13.71	2.74889
13.72	2.73737
13.73	2.75843
13.74	2.73968
13.75	2.74922
13.76	2.76172
13.77	2.72125
13.78	2.72356
13.79	2.72553
13.8	2.73112
13.81	2.74362
13.82	2.73902
13.83	2.76369
13.84	2.73408
13.85	2.71961
13.86	2.71073
13.87	2.72981
13.88	2.71632
13.89	2.7127
13.9	2.715
13.91	2.70777
13.92	2.72323
13.93	2.74856
13.94	2.7229
13.95	2.71829
13.96	2.74395
13.97	2.77126
13.98	2.77323
13.99	2.73507
14	2.73606
14.01	2.71895
14.02	2.71171
14.03	2.75382
14.04	2.75974
14.05	2.71928
14.06	2.72882
14.07	2.71895
14.08	2.74823
14.09	2.72257
14.1	2.73803
14.11	2.73968
14.12	2.72487
14.13	2.73441
14.14	2.70546
14.15	2.73014
14.16	2.75185
14.17	2.73474
14.18	2.72882
14.19	2.75645
14.2	2.73672
14.21	2.75218
14.22	2.74132
14.23	2.74264
14.24	2.74658
14.25	2.7354
14.26	2.73606
14.27	2.75185
14.28	2.72356
14.29	2.74658
14.3	2.73836
14.31	2.71402
14.32	2.72915
14.33	2.74231
14.34	2.74264
14.35	2.73836
14.36	2.73014
14.37	2.73145
14.38	2.71829
14.39	2.70218
14.4	2.70086
14.41	2.70579
14.42	2.72619
14.43	2.72454
14.44	2.7206
14.45	2.69889
14.46	2.72586
14.47	2.7706
14.48	2.72125
14.49	2.71928
14.5	2.72553
14.51	2.74987
14.52	2.72948
14.53	2.7331
14.54	2.74329
14.55	2.76534
14.56	2.75448
14.57	2.70546
14.58	2.72718
14.59	2.73474
14.6	2.72586
14.61	2.74362
14.62	2.74593
14.63	2.73704
14.64	2.72685
14.65	2.71468
14.66	2.72224
14.67	2.73079
14.68	2.72553
14.69	2.71303
14.7	2.72487
14.71	2.7275
14.72	2.73178
14.73	2.72454
14.74	2.7252
14.75	2.73079
14.76	2.72619
14.77	2.70678
14.78	2.73145
14.79	2.74362
14.8	2.74922
14.81	2.74593
14.82	2.73079
14.83	2.7104
14.84	2.77455
14.85	2.76073
14.86	2.76599
14.87	2.73935
14.88	2.74856
14.89	2.74362
14.9	2.71402
14.91	2.73507
14.92	2.7706
14.93	2.74527
14.94	2.7354
14.95	2.70053
14.96	2.73244
14.97	2.73869
14.98	2.72422
14.99	2.72027
15	2.72257
15.01	2.73968
15.02	2.70777
15.03	2.68704
15.04	2.68375
15.05	2.70448
15.06	2.71533
15.07	2.7252
15.08	2.76961
15.09	2.75974
15.1	2.72652
15.11	2.7127
15.12	2.73474
15.13	2.76369
15.14	2.72356
15.15	2.7627
15.16	2.73869
15.17	2.74297
15.18	2.73211
15.19	2.74066
15.2	2.72685
15.21	2.70415
15.22	2.72619
15.23	2.71566
15.24	2.70678
15.25	2.72093
15.26	2.69658
15.27	2.71698
15.28	2.71665
15.29	2.71468
15.3	2.74001
15.31	2.75744
15.32	2.75974
15.33	2.75251
15.34	2.72422
15.35	2.70514
15.36	2.74033
15.37	2.75908
15.38	2.74494
15.39	2.75908
15.4	2.75908
15.41	2.73277
15.42	2.71665
15.43	2.71073
15.44	2.74626
15.45	2.73672
15.46	2.71303
15.47	2.715
15.48	2.75185
15.49	2.71731
15.5	2.74165
15.51	2.77224
15.52	2.75119
15.53	2.72093
15.54	2.72652
15.55	2.71303
15.56	2.73408
15.57	2.73672
15.58	2.78507
15.59	2.76172
15.6	2.75448
15.61	2.7354
15.62	2.75185
15.63	2.75941
15.64	2.73343
15.65	2.72487
15.66	2.73112
15.67	2.70974
15.68	2.73507
15.69	2.70777
15.7	2.74033
15.71	2.73112
15.72	2.7331
15.73	2.74001
15.74	2.72948
15.75	2.73935
15.76	2.69889
15.77	2.70843
15.78	2.72323
15.79	2.74395
15.8	2.73704
15.81	2.7331
15.82	2.72718
15.83	2.71797
15.84	2.7104
15.85	2.71928
15.86	2.70316
15.87	2.7229
15.88	2.76237
15.89	2.72948
15.9	2.78047
15.91	2.76862
15.92	2.76501
15.93	2.7377
15.94	2.72224
15.95	2.71829
15.96	2.72158
15.97	2.70744
15.98	2.69954
15.99	2.71731
16	2.73803
16.01	2.72553
16.02	2.70349
16.03	2.74066
16.04	2.6979
16.05	2.71237
16.06	2.73014
16.07	2.73014
16.08	2.73573
16.09	2.73935
16.1	2.71171
16.11	2.72027
16.12	2.73376
16.13	2.72718
16.14	2.73573
16.15	2.72389
16.16	2.72125
16.17	2.77093
16.18	2.72553
16.19	2.73047
16.2	2.74494
16.21	2.7206
16.22	2.73573
16.23	2.69494
16.24	2.70612
16.25	2.76139
16.26	2.75908
16.27	2.75382
16.28	2.73869
16.29	2.69066
16.3	2.72191
16.31	2.75316
16.32	2.75612
16.33	2.69724
16.34	2.7252
16.35	2.7354
16.36	2.72915
16.37	2.72816
16.38	2.71928
16.39	2.73704
16.4	2.71862
16.41	2.73079
16.42	2.76073
16.43	2.73376
16.44	2.71994
16.45	2.70678
16.46	2.71566
16.47	2.75053
16.48	2.73047
16.49	2.74987
16.5	2.77685
16.51	2.75481
16.52	2.73079
16.53	2.7275
16.54	2.72093
16.55	2.70843
16.56	2.71731
16.57	2.73672
16.58	2.7275
16.59	2.70415
16.6	2.7354
16.61	2.75283
16.62	2.72783
16.63	2.71533
16.64	2.72652
16.65	2.74856
16.66	2.72915
16.67	2.73803
16.68	2.69856
16.69	2.67948
16.7	2.71566
16.71	2.73639
16.72	2.72093
16.73	2.70974
16.74	2.73639
16.75	2.75283
16.76	2.72685
16.77	2.74757
16.78	2.74428
16.79	2.74362
16.8	2.7252
16.81	2.70908
16.82	2.71435
16.83	2.7502
16.84	2.73178
16.85	2.71928
16.86	2.74329
16.87	2.72125
16.88	2.72125
16.89	2.73047
16.9	2.74691
16.91	2.75251
16.92	2.73244
16.93	2.71731
16.94	2.71928
16.95	2.7206
16.96	2.71566
16.97	2.75448
16.98	2.74527
16.99	2.7456
17	2.71731
17.01	2.71171
17.02	2.71533
17.03	2.71961
17.04	2.74889
17.05	2.70514
17.06	2.75119
17.07	2.7581
17.08	2.73507
17.09	2.76007
17.1	2.74922
17.11	2.73672
17.12	2.71106
17.13	2.74428
17.14	2.73376
17.15	2.73112
17.16	2.75349
17.17	2.71698
17.18	2.73474
17.19	2.72882
17.2	2.73211
17.21	2.73902
17.22	2.74165
17.23	2.70645
17.24	2.73408
17.25	2.69461
17.26	2.70579
17.27	2.72027
17.28	2.73968
17.29	2.73836
17.3	2.74757
17.31	2.73803
17.32	2.71665
17.33	2.70283
17.34	2.69823
17.35	2.76632
17.36	2.75744
17.37	2.73112
17.38	2.68935
17.39	2.73507
17.4	2.71698
17.41	2.72915
17.42	2.72882
17.43	2.73441
17.44	2.7252
17.45	2.7456
17.46	2.73376
17.47	2.70645
17.48	2.73343
17.49	2.74395
17.5	2.73507
17.51	2.7581
17.52	2.76566
17.53	2.76501
17.54	2.76336
17.55	2.73507
17.56	2.73277
17.57	2.73277
17.58	2.73145
17.59	2.72685
17.6	2.72586
17.61	2.73803
17.62	2.72619
17.63	2.72191
17.64	2.70908
17.65	2.75711
17.66	2.71007
17.67	2.70908
17.68	2.71632
17.69	2.71435
17.7	2.72783
17.71	2.70218
17.72	2.71665
17.73	2.73277
17.74	2.71566
17.75	2.7502
17.76	2.73507
17.77	2.70908
17.78	2.6979
17.79	2.7252
17.8	2.7025
17.81	2.7206
17.82	2.74461
17.83	2.74593
17.84	2.72619
17.85	2.7025
17.86	2.72125
17.87	2.72454
17.88	2.71007
17.89	2.72257
17.9	2.70546
17.91	2.72356
17.92	2.72257
17.93	2.73836
17.94	2.76862
17.95	2.77027
17.96	2.72356
17.97	2.72783
17.98	2.71073
17.99	2.70908
18	2.72553
18.01	2.7558
18.02	2.73672
18.03	2.71731
18.04	2.74132
18.05	2.70514
18.06	2.76172
18.07	2.75481
18.08	2.73803
18.09	2.72948
18.1	2.72652
18.11	2.68869
18.12	2.72718
18.13	2.71665
18.14	2.76369
18.15	2.73902
18.16	2.73704
18.17	2.74198
18.18	2.73047
18.19	2.71764
18.2	2.71994
18.21	2.70645
18.22	2.71435
18.23	2.7331
18.24	2.74362
18.25	2.73244
18.26	2.72093
18.27	2.70941
18.28	2.69099
18.29	2.73014
18.3	2.71435
18.31	2.71764
18.32	2.74099
18.33	2.6956
18.34	2.70415
18.35	2.73639
18.36	2.73178
18.37	2.73343
18.38	2.68967
18.39	2.71764
18.4	2.72125
18.41	2.73869
18.42	2.74593
18.43	2.71237
18.44	2.75119
18.45	2.7275
18.46	2.72816
18.47	2.74856
18.48	2.75283
18.49	2.72981
18.5	2.72948
18.51	2.69987
18.52	2.73704
18.53	2.74165
18.54	2.75415
18.55	2.71468
18.56	2.71665
18.57	2.73441
18.58	2.71994
18.59	2.70974
18.6	2.69658
18.61	2.7252
18.62	2.72718
18.63	2.7275
18.64	2.71829
18.65	2.76007
18.66	2.73606
18.67	2.74691
18.68	2.71599
18.69	2.71402
18.7	2.70678
18.71	2.73968
18.72	2.72356
18.73	2.70711
18.74	2.74264
18.75	2.71468
18.76	2.70514
18.77	2.69231
18.78	2.7025
18.79	2.70579
18.8	2.69921
18.81	2.74264
18.82	2.71369
18.83	2.68836
18.84	2.72027
18.85	2.73079
18.86	2.71139
18.87	2.70612
18.88	2.73343
18.89	2.72389
18.9	2.7229
18.91	2.71632
18.92	2.70481
18.93	2.71731
18.94	2.75843
18.95	2.71402
18.96	2.7275
18.97	2.75481
18.98	2.69625
18.99	2.71435
19	2.71369
19.01	2.7354
19.02	2.73836
19.03	2.71961
19.04	2.71994
19.05	2.69757
19.06	2.7025
19.07	2.71797
19.08	2.70481
19.09	2.71106
19.1	2.71303
19.11	2.70579
19.12	2.74395
19.13	2.71928
19.14	2.70711
19.15	2.71402
19.16	2.71698
19.17	2.71698
19.18	2.73047
19.19	2.74264
19.2	2.71303
19.21	2.72487
19.22	2.73112
19.23	2.72093
19.24	2.7127
19.25	2.72619
19.26	2.68836
19.27	2.70283
19.28	2.72191
19.29	2.71632
19.3	2.7104
19.31	2.72586
19.32	2.7206
19.33	2.71237
19.34	2.75876
19.35	2.74691
19.36	2.7377
19.37	2.71698
19.38	2.73704
19.39	2.75547
19.4	2.74264
19.41	2.69527
19.42	2.69461
19.43	2.70283
19.44	2.70415
19.45	2.73014
19.46	2.73112
19.47	2.74297
19.48	2.68046
19.49	2.69198
19.5	2.72849
19.51	2.71665
19.52	2.715
19.53	2.72586
19.54	2.71106
19.55	2.73376
19.56	2.73474
19.57	2.72816
19.58	2.72783
19.59	2.72487
19.6	2.68211
19.61	2.72158
19.62	2.72783
19.63	2.71829
19.64	2.72915
19.65	2.73408
19.66	2.71797
19.67	2.7331
19.68	2.70349
19.69	2.74823
19.7	2.72553
19.71	2.69527
19.72	2.70579
19.73	2.72619
19.74	2.71764
19.75	2.7127
19.76	2.73178
19.77	2.73902
19.78	2.75382
19.79	2.7627
19.8	2.70974
19.81	2.73606
19.82	2.71895
19.83	2.72027
19.84	2.71402
19.85	2.74198
19.86	2.73079
19.87	2.73244
19.88	2.75086
19.89	2.73704
19.9	2.71369
19.91	2.7104
19.92	2.73376
19.93	2.74428
19.94	2.72125
19.95	2.73573
19.96	2.74264
19.97	2.71797
19.98	2.71435
19.99	2.73704
20	2.69724
20.01	2.71829
20.02	2.71764
20.03	2.7331
20.04	2.7275
20.05	2.7331
20.06	2.72356
20.07	2.71303
20.08	2.72454
20.09	2.74987
20.1	2.74329
20.11	2.74362
20.12	2.72422
20.13	2.69264
20.14	2.70908
20.15	2.72882
20.16	2.72783
20.17	2.69921
20.18	2.71599
20.19	2.71731
20.2	2.71237
20.21	2.73211
20.22	2.71928
20.23	2.72224
20.24	2.71862
20.25	2.74428
20.26	2.74231
20.27	2.74461
20.28	2.71435
20.29	2.74461
20.3	2.73836
20.31	2.72257
20.32	2.74198
20.33	2.74165
20.34	2.69461
20.35	2.73211
20.36	2.74395
20.37	2.6979
20.38	2.72553
20.39	2.72915
20.4	2.73079
20.41	2.73277
20.42	2.68935
20.43	2.7331
20.44	2.72685
20.45	2.7229
20.46	2.7354
20.47	2.72783
20.48	2.74165
20.49	2.73211
20.5	2.70678
20.51	2.74428
20.52	2.71665
20.53	2.70777
20.54	2.70744
20.55	2.70908
20.56	2.71961
20.57	2.71764
20.58	2.75251
20.59	2.73507
20.6	2.7025
20.61	2.715
20.62	2.73836
20.63	2.71533
20.64	2.71731
20.65	2.69724
20.66	2.70415
20.67	2.6831
20.68	2.70349
20.69	2.68967
20.7	2.70349
20.71	2.71862
20.72	2.69165
20.73	2.72027
20.74	2.69691
20.75	2.73211
20.76	2.73047
20.77	2.71369
20.78	2.73047
20.79	2.72816
20.8	2.7275
20.81	2.71566
20.82	2.74001
20.83	2.72948
20.84	2.72257
20.85	2.72027
20.86	2.72948
20.87	2.73376
20.88	2.7104
20.89	2.72224
20.9	2.73211
20.91	2.73902
20.92	2.74593
20.93	2.68507
20.94	2.70908
20.95	2.70908
20.96	2.71468
20.97	2.74987
20.98	2.7229
20.99	2.69987
21	2.71994
21.01	2.71665
21.02	2.73935
21.03	2.7331
21.04	2.72915
21.05	2.72652
21.06	2.75974
21.07	2.72191
21.08	2.71336
21.09	2.69724
21.1	2.73079
21.11	2.72027
21.12	2.68046
21.13	2.70612
21.14	2.7354
21.15	2.7354
21.16	2.71369
21.17	2.74593
21.18	2.71336
21.19	2.71204
21.2	2.73145
21.21	2.71237
21.22	2.73079
21.23	2.70843
21.24	2.7104
21.25	2.74033
21.26	2.72454
21.27	2.7354
21.28	2.73244
21.29	2.7081
21.3	2.71369
21.31	2.70514
21.32	2.70415
21.33	2.68902
21.34	2.72948
21.35	2.71961
21.36	2.71237
21.37	2.7252
21.38	2.74823
21.39	2.72915
21.4	2.73014
21.41	2.70185
21.42	2.75053
21.43	2.72553
21.44	2.73178
21.45	2.73112
21.46	2.69658
21.47	2.70185
21.48	2.71204
21.49	2.72093
21.5	2.70448
21.51	2.69198
21.52	2.73606
21.53	2.76895
21.54	2.74626
21.55	2.76435
21.56	2.74001
21.57	2.72158
21.58	2.68277
21.59	2.71435
21.6	2.73968
21.61	2.73079
21.62	2.75547
21.63	2.72257
21.64	2.6877
21.65	2.72553
21.66	2.71961
21.67	2.71402
21.68	2.74395
21.69	2.71829
21.7	2.69362
21.71	2.7104
21.72	2.69757
21.73	2.68803
21.74	2.70185
21.75	2.70612
21.76	2.72586
21.77	2.71468
21.78	2.70349
21.79	2.72586
21.8	2.69987
21.81	2.70777
21.82	2.70382
21.83	2.68474
21.84	2.66731
21.85	2.70941
21.86	2.6706
21.87	2.68375
21.88	2.74955
21.89	2.73803
21.9	2.6831
21.91	2.7104
21.92	2.71106
21.93	2.71895
21.94	2.71303
21.95	2.68869
21.96	2.71204
21.97	2.75152
21.98	2.72685
21.99	2.73112
22	2.72685
22.01	2.73408
22.02	2.74099
22.03	2.74856
22.04	2.72586
22.05	2.72981
22.06	2.75119
22.07	2.74626
22.08	2.75514
22.09	2.72685
22.1	2.72454
22.11	2.73408
22.12	2.73935
22.13	2.74231
22.14	2.73639
22.15	2.7331
22.16	2.7229
22.17	2.72158
22.18	2.72093
22.19	2.7354
22.2	2.74231
22.21	2.75119
22.22	2.69362
22.23	2.70645
22.24	2.72224
22.25	2.69625
22.26	2.7206
22.27	2.70119
22.28	2.69592
22.29	2.72224
22.3	2.70514
22.31	2.71204
22.32	2.75053
22.33	2.70382
22.34	2.70777
22.35	2.73573
22.36	2.6831
22.37	2.71961
22.38	2.70777
22.39	2.7354
22.4	2.75678
22.41	2.75086
22.42	2.70908
22.43	2.72948
22.44	2.715
22.45	2.70941
22.46	2.69921
22.47	2.71303
22.48	2.71928
22.49	2.71829
22.5	2.71073
22.51	2.74198
22.52	2.73474
22.53	2.74757
22.54	2.75876
22.55	2.73145
22.56	2.72487
22.57	2.68112
22.58	2.70612
22.59	2.73376
22.6	2.74297
22.61	2.70612
22.62	2.69921
22.63	2.71862
22.64	2.72158
22.65	2.7558
22.66	2.7456
22.67	2.69362
22.68	2.72158
22.69	2.71533
22.7	2.72125
22.71	2.69198
22.72	2.71468
22.73	2.72685
22.74	2.71994
22.75	2.70053
22.76	2.71402
22.77	2.7502
22.78	2.71599
22.79	2.7127
22.8	2.72027
22.81	2.70481
22.82	2.72389
22.83	2.69395
22.84	2.69625
22.85	2.7456
22.86	2.70283
22.87	2.68935
22.88	2.71336
22.89	2.71862
22.9	2.71797
22.91	2.70119
22.92	2.73507
22.93	2.71566
22.94	2.70843
22.95	2.73014
22.96	2.73408
22.97	2.74264
22.98	2.73376
22.99	2.71468
23	2.70185
23.01	2.69033
23.02	2.69987
23.03	2.70875
23.04	2.72027
23.05	2.73343
23.06	2.67915
23.07	2.73211
23.08	2.73474
23.09	2.7331
23.1	2.72553
23.11	2.71961
23.12	2.73507
23.13	2.72389
23.14	2.71665
23.15	2.72389
23.16	2.71336
23.17	2.71073
23.18	2.68671
23.19	2.6956
23.2	2.69362
23.21	2.73968
23.22	2.76435
23.23	2.73639
23.24	2.70218
23.25	2.71731
23.26	2.75119
23.27	2.70349
23.28	2.69362
23.29	2.72718
23.3	2.70612
23.31	2.69691
23.32	2.70875
23.33	2.71369
23.34	2.70843
23.35	2.7252
23.36	2.73672
23.37	2.70053
23.38	2.71468
23.39	2.71731
23.4	2.71106
23.41	2.67981
23.42	2.70152
23.43	2.72586
23.44	2.70678
23.45	2.72816
23.46	2.74066
23.47	2.73968
23.48	2.73639
23.49	2.71961
23.5	2.72718
23.51	2.71566
23.52	2.69527
23.53	2.71139
23.54	2.70448
23.55	2.71764
23.56	2.73606
23.57	2.67487
23.58	2.67652
23.59	2.68178
23.6	2.70218
23.61	2.72093
23.62	2.69724
23.63	2.71303
23.64	2.73277
23.65	2.71829
23.66	2.7275
23.67	2.72224
23.68	2.71369
23.69	2.72915
23.7	2.70053
23.71	2.71829
23.72	2.73244
23.73	2.6979
23.74	2.70843
23.75	2.74626
23.76	2.70152
23.77	2.72652
23.78	2.73112
23.79	2.71829
23.8	2.70316
23.81	2.70546
23.82	2.69625
23.83	2.72027
23.84	2.68737
23.85	2.71171
23.86	2.71369
23.87	2.73672
23.88	2.7275
23.89	2.68935
23.9	2.71862
23.91	2.7025
23.92	2.74033
23.93	2.71764
23.94	2.70053
23.95	2.70481
23.96	2.70941
23.97	2.70185
23.98	2.71336
23.99	2.71731
24	2.71073
24.01	2.73112
24.02	2.71928
24.03	2.715
24.04	2.73573
24.05	2.70612
24.06	2.70415
24.07	2.7377
24.08	2.71797
24.09	2.71303
24.1	2.71862
24.11	2.72553
24.12	2.70645
24.13	2.71007
24.14	2.72356
24.15	2.71698
24.16	2.72422
24.17	2.73639
24.18	2.73047
24.19	2.71632
24.2	2.73639
24.21	2.7252
24.22	2.715
24.23	2.71829
24.24	2.72816
24.25	2.70514
24.26	2.70875
24.27	2.71106
24.28	2.72816
24.29	2.74527
24.3	2.75053
24.31	2.71665
24.32	2.73704
24.33	2.715
24.34	2.73376
24.35	2.73704
24.36	2.70481
24.37	2.70843
24.38	2.72487
24.39	2.72027
24.4	2.71895
24.41	2.71566
24.42	2.73704
24.43	2.75777
24.44	2.7456
24.45	2.70908
24.46	2.70349
24.47	2.7275
24.48	2.74001
24.49	2.72356
24.5	2.68178
24.51	2.68935
24.52	2.70415
24.53	2.71665
24.54	2.74428
24.55	2.71336
24.56	2.7354
24.57	2.69987
24.58	2.74001
24.59	2.71698
24.6	2.73672
24.61	2.75119
24.62	2.68375
24.63	2.69165
24.64	2.71731
24.65	2.72981
24.66	2.70974
24.67	2.69724
24.68	2.69921
24.69	2.69823
24.7	2.74658
24.71	2.72652
24.72	2.72257
24.73	2.73112
24.74	2.72685
24.75	2.69132
24.76	2.72323
24.77	2.72093
24.78	2.73079
24.79	2.73211
24.8	2.69724
24.81	2.69823
24.82	2.71369
24.83	2.73474
24.84	2.69757
24.85	2.71829
24.86	2.71073
24.87	2.73672
24.88	2.7025
24.89	2.73968
24.9	2.74264
24.91	2.71303
24.92	2.7331
24.93	2.70152
24.94	2.70711
24.95	2.7252
24.96	2.70283
24.97	2.6979
24.98	2.69198
24.99	2.7002
25	2.7025
25.01	2.70678
25.02	2.72191
25.03	2.71139
25.04	2.69691
25.05	2.72685
25.06	2.6877
25.07	2.72158
25.08	2.73836
25.09	2.75316
25.1	2.72125
25.11	2.68836
25.12	2.67027
25.13	2.72125
25.14	2.71336
25.15	2.72553
25.16	2.7206
25.17	2.72191
25.18	2.71468
25.19	2.72783
25.2	2.71237
25.21	2.72323
25.22	2.71369
25.23	2.73935
25.24	2.70941
25.25	2.70744
25.26	2.73277
25.27	2.73047
25.28	2.7206
25.29	2.70678
25.3	2.71171
25.31	2.73968
25.32	2.72816
25.33	2.69658
25.34	2.70185
25.35	2.70481
25.36	2.72553
25.37	2.71928
25.38	2.71106
25.39	2.71402
25.4	2.72586
25.41	2.68112
25.42	2.69132
25.43	2.7377
25.44	2.75251
25.45	2.70481
25.46	2.69658
25.47	2.7081
25.48	2.70941
25.49	2.73079
25.5	2.7025
25.51	2.71171
25.52	2.74132
25.53	2.73047
25.54	2.71007
25.55	2.69724
25.56	2.68869
25.57	2.71764
25.58	2.67356
25.59	2.69921
25.6	2.71698
25.61	2.67948
25.62	2.70941
25.63	2.72849
25.64	2.7206
25.65	2.71632
25.66	2.73014
25.67	2.71665
25.68	2.715
25.69	2.70119
25.7	2.68342
25.71	2.71106
25.72	2.70941
25.73	2.70579
25.74	2.7127
25.75	2.71336
25.76	2.71895
25.77	2.72158
25.78	2.70941
25.79	2.72158
25.8	2.70974
25.81	2.73507
25.82	2.6854
25.83	2.70086
25.84	2.71665
25.85	2.7377
25.86	2.74132
25.87	2.74198
25.88	2.72487
25.89	2.71797
25.9	2.72915
25.91	2.72882
25.92	2.71468
25.93	2.7229
25.94	2.74856
25.95	2.72981
25.96	2.69987
25.97	2.69724
25.98	2.69296
25.99	2.72191
26	2.715
26.01	2.66533
26.02	2.70119
26.03	2.72454
26.04	2.71204
26.05	2.69296
26.06	2.71829
26.07	2.70744
26.08	2.71566
26.09	2.71336
26.1	2.70119
26.11	2.71171
26.12	2.7081
26.13	2.72882
26.14	2.71665
26.15	2.70744
26.16	2.72619
26.17	2.69362
26.18	2.72224
26.19	2.73277
26.2	2.69
26.21	2.71599
26.22	2.72718
26.23	2.68902
26.24	2.67487
26.25	2.69132
26.26	2.69461
26.27	2.72389
26.28	2.73935
26.29	2.73902
26.3	2.73178
26.31	2.71171
26.32	2.68639
26.33	2.70843
26.34	2.70481
26.35	2.73079
26.36	2.68935
26.37	2.69264
26.38	2.71402
26.39	2.70185
26.4	2.70514
26.41	2.7229
26.42	2.71895
26.43	2.72718
26.44	2.72027
26.45	2.73145
26.46	2.70579
26.47	2.70908
26.48	2.71204
26.49	2.71698
26.5	2.73112
26.51	2.74724
26.52	2.72093
26.53	2.74099
26.54	2.72356
26.55	2.73343
26.56	2.68869
26.57	2.715
26.58	2.69889
26.59	2.70415
26.6	2.71632
26.61	2.6979
26.62	2.74099
26.63	2.7002
26.64	2.70974
26.65	2.70218
26.66	2.69395
26.67	2.72849
26.68	2.7127
26.69	2.70843
26.7	2.6956
26.71	2.68441
26.72	2.70382
26.73	2.70744
26.74	2.69066
26.75	2.70185
26.76	2.70843
26.77	2.70481
26.78	2.73704
26.79	2.7354
26.8	2.72619
26.81	2.68277
26.82	2.69921
26.83	2.68474
26.84	2.71336
26.85	2.71303
26.86	2.72915
26.87	2.70382
26.88	2.7206
26.89	2.74198
26.9	2.73047
26.91	2.6831
26.92	2.71237
26.93	2.71829
26.94	2.73376
26.95	2.71599
26.96	2.73145
26.97	2.75382
26.98	2.74922
26.99	2.71566
27	2.73079
27.01	2.73178
27.02	2.71237
27.03	2.74593
27.04	2.73902
27.05	2.74099
27.06	2.71731
27.07	2.71994
27.08	2.72586
27.09	2.69757
27.1	2.70941
27.11	2.74724
27.12	2.73145
27.13	2.74297
27.14	2.72619
27.15	2.70283
27.16	2.68803
27.17	2.70974
27.18	2.70678
27.19	2.72191
27.2	2.71599
27.21	2.68967
27.22	2.69757
27.23	2.7127
27.24	2.73968
27.25	2.70283
27.26	2.7127
27.27	2.72191
27.28	2.73343
27.29	2.72191
27.3	2.69757
27.31	2.71139
27.32	2.70316
27.33	2.7002
27.34	2.70579
27.35	2.74757
27.36	2.73507
27.37	2.69264
27.38	2.72323
27.39	2.73014
27.4	2.72553
27.41	2.73376
27.42	2.71862
27.43	2.67487
27.44	2.73277
27.45	2.73474
27.46	2.70645
27.47	2.70185
27.48	2.73178
27.49	2.70119
27.5	2.72619
27.51	2.70546
27.52	2.72487
27.53	2.72454
27.54	2.72093
27.55	2.74428
27.56	2.68013
27.57	2.70086
27.58	2.73474
27.59	2.71171
27.6	2.72093
27.61	2.72586
27.62	2.66928
27.63	2.67882
27.64	2.6752
27.65	2.70185
27.66	2.68671
27.67	2.68902
27.68	2.69
27.69	2.71336
27.7	2.74033
27.71	2.74165
27.72	2.71764
27.73	2.72948
27.74	2.73836
27.75	2.70316
27.76	2.70744
27.77	2.7229
27.78	2.72093
27.79	2.71862
27.8	2.69033
27.81	2.71599
27.82	2.73408
27.83	2.69494
27.84	2.70546
27.85	2.72356
27.86	2.72619
27.87	2.72257
27.88	2.70908
27.89	2.71533
27.9	2.72816
27.91	2.71731
27.92	2.71237
27.93	2.70514
27.94	2.70481
27.95	2.70777
27.96	2.6956
27.97	2.70053
27.98	2.74757
27.99	2.70678
28	2.71928
28.01	2.7229
28.02	2.70974
28.03	2.71106
28.04	2.72553
28.05	2.70514
28.06	2.74165
28.07	2.74527
28.08	2.74461
28.09	2.7275
28.1	2.7354
28.11	2.6956
28.12	2.68474
28.13	2.70283
28.14	2.69757
28.15	2.71435
28.16	2.70579
28.17	2.71106
28.18	2.72948
28.19	2.71139
28.2	2.71862
28.21	2.70678
28.22	2.77027
28.23	2.71895
28.24	2.68408
28.25	2.70316
28.26	2.71862
28.27	2.71862
28.28	2.72422
28.29	2.71303
28.3	2.74099
28.31	2.77257
28.32	2.74461
28.33	2.69592
28.34	2.70711
28.35	2.73178
28.36	2.72849
28.37	2.70678
28.38	2.7275
28.39	2.68803
28.4	2.70119
28.41	2.71632
28.42	2.74362
28.43	2.7252
28.44	2.69921
28.45	2.70152
28.46	2.69691
28.47	2.71468
28.48	2.7229
28.49	2.72586
28.5	2.71599
28.51	2.7104
28.52	2.71698
28.53	2.71862
28.54	2.70514
28.55	2.69165
28.56	2.71895
28.57	2.70744
28.58	2.70546
28.59	2.69066
28.6	2.69757
28.61	2.71237
28.62	2.71895
28.63	2.72816
28.64	2.67586
28.65	2.71073
28.66	2.72816
28.67	2.70941
28.68	2.65875
28.69	2.71139
28.7	2.73244
28.71	2.75053
28.72	2.73869
28.73	2.71533
28.74	2.7025
28.75	2.6956
28.76	2.68803
28.77	2.68967
28.78	2.69921
28.79	2.69329
28.8	2.72257
28.81	2.7127
28.82	2.70744
28.83	2.70283
28.84	2.69889
28.85	2.70514
28.86	2.7206
28.87	2.68145
28.88	2.70152
28.89	2.73639
28.9	2.73178
28.91	2.7252
28.92	2.71895
28.93	2.71994
28.94	2.71468
28.95	2.71435
28.96	2.73968
28.97	2.7081
28.98	2.70086
28.99	2.70119
29	2.68869
29.01	2.71764
29.02	2.68869
29.03	2.69428
29.04	2.71829
29.05	2.70349
29.06	2.7002
29.07	2.68244
29.08	2.6831
29.09	2.70711
29.1	2.72356
29.11	2.69856
29.12	2.70185
29.13	2.70579
29.14	2.69428
29.15	2.73376
29.16	2.73014
29.17	2.69428
29.18	2.75645
29.19	2.6775
29.2	2.6752
29.21	2.71204
29.22	2.70218
29.23	2.71862
29.24	2.69296
29.25	2.68112
29.26	2.70579
29.27	2.69329
29.28	2.72586
29.29	2.7104
29.3	2.71171
29.31	2.71632
29.32	2.71829
29.33	2.69823
29.34	2.71237
29.35	2.72224
29.36	2.71632
29.37	2.72422
29.38	2.71862
29.39	2.70448
29.4	2.71336
29.41	2.72619
29.42	2.69494
29.43	2.72882
29.44	2.74362
29.45	2.72323
29.46	2.69757
29.47	2.71402
29.48	2.72422
29.49	2.73573
29.5	2.74626
29.51	2.72356
29.52	2.70612
29.53	2.69724
29.54	2.67981
29.55	2.73211
29.56	2.70382
29.57	2.7002
29.58	2.7104
29.59	2.70481
29.6	2.7229
29.61	2.71698
29.62	2.72553
29.63	2.72356
29.64	2.70612
29.65	2.71895
29.66	2.74626
29.67	2.77159
29.68	2.7252
29.69	2.70711
29.7	2.72619
29.71	2.69165
29.72	2.71961
29.73	2.74955
29.74	2.69691
29.75	2.68704
29.76	2.72981
29.77	2.71007
29.78	2.73277
29.79	2.72027
29.8	2.7104
29.81	2.72323
29.82	2.7331
29.83	2.71007
29.84	2.7081
29.85	2.74198
29.86	2.7354
29.87	2.71369
29.88	2.70053
29.89	2.71007
29.9	2.69889
29.91	2.68244
29.92	2.70283
29.93	2.70382
29.94	2.70711
29.95	2.70744
29.96	2.74165
29.97	2.72619
29.98	2.7229
29.99	2.69395
30	2.72093
30.01	2.71698
30.02	2.71336
30.03	2.70612
30.04	2.69099
30.05	2.7104
30.06	2.69658
30.07	2.71599
30.08	2.73836
30.09	2.69625
30.1	2.73376
30.11	2.71632
30.12	2.70711
30.13	2.71336
30.14	2.72191
30.15	2.68704
30.16	2.70941
30.17	2.70645
30.18	2.72685
30.19	2.73376
30.2	2.75218
30.21	2.70119
30.22	2.71007
30.23	2.70283
30.24	2.69494
30.25	2.67717
30.26	2.69823
30.27	2.71928
30.28	2.72685
30.29	2.72027
30.3	2.70744
30.31	2.69724
30.32	2.71468
30.33	2.7104
30.34	2.70777
30.35	2.7354
30.36	2.70152
30.37	2.73376
30.38	2.70908
30.39	2.7002
30.4	2.70316
30.41	2.71829
30.42	2.70481
30.43	2.69033
30.44	2.69823
30.45	2.68704
30.46	2.70941
30.47	2.70152
30.48	2.71468
30.49	2.7002
30.5	2.71698
30.51	2.67915
30.52	2.67652
30.53	2.70908
30.54	2.69461
30.55	2.66434
30.56	2.70843
30.57	2.6956
30.58	2.69264
30.59	2.69494
30.6	2.71303
30.61	2.7206
30.62	2.73935
30.63	2.70283
30.64	2.68441
30.65	2.71204
30.66	2.73079
30.67	2.70283
30.68	2.70546
30.69	2.72093
30.7	2.71402
30.71	2.7081
30.72	2.72191
30.73	2.6956
30.74	2.71797
30.75	2.71566
30.76	2.70777
30.77	2.7252
30.78	2.70415
30.79	2.71369
30.8	2.71599
30.81	2.74724
30.82	2.70941
30.83	2.7104
30.84	2.71566
30.85	2.71139
30.86	2.70941
30.87	2.74658
30.88	2.71533
30.89	2.71928
30.9	2.70481
30.91	2.71435
30.92	2.68704
30.93	2.71797
30.94	2.69658
30.95	2.72718
30.96	2.72224
30.97	2.70086
30.98	2.71566
30.99	2.72323
31	2.73704
31.01	2.73507
31.02	2.72257
31.03	2.72093
31.04	2.68244
31.05	2.69231
31.06	2.70546
31.07	2.72685
31.08	2.73079
31.09	2.69329
31.1	2.70481
31.11	2.70744
31.12	2.71566
31.13	2.70974
31.14	2.72257
31.15	2.70974
31.16	2.70514
31.17	2.67915
31.18	2.71698
31.19	2.71303
31.2	2.72849
31.21	2.74264
31.22	2.70514
31.23	2.69428
31.24	2.70514
31.25	2.71731
31.26	2.70546
31.27	2.72257
31.28	2.74001
31.29	2.71106
31.3	2.71862
31.31	2.7229
31.32	2.73277
31.33	2.7229
31.34	2.71764
31.35	2.69461
31.36	2.72323
31.37	2.72619
31.38	2.7275
31.39	2.74889
31.4	2.72422
31.41	2.71007
31.42	2.71665
31.43	2.71468
31.44	2.71139
31.45	2.7206
31.46	2.73277
31.47	2.70974
31.48	2.70053
31.49	2.70349
31.5	2.74527
31.51	2.72553
31.52	2.70415
31.53	2.68474
31.54	2.70053
31.55	2.7206
31.56	2.69757
31.57	2.71468
31.58	2.71632
31.59	2.69592
31.6	2.7081
31.61	2.74066
31.62	2.72454
31.63	2.69362
31.64	2.70316
31.65	2.715
31.66	2.69724
31.67	2.71961
31.68	2.72915
31.69	2.70843
31.7	2.71106
31.71	2.70579
31.72	2.665
31.73	2.70908
31.74	2.70941
31.75	2.72125
31.76	2.71895
31.77	2.72783
31.78	2.70415
31.79	2.73112
31.8	2.7002
31.81	2.71632
31.82	2.73737
31.83	2.70941
31.84	2.71435
31.85	2.7127
31.86	2.73803
31.87	2.70908
31.88	2.71468
31.89	2.72652
31.9	2.72027
31.91	2.73836
31.92	2.71599
31.93	2.73343
31.94	2.70481
31.95	2.71665
31.96	2.72586
31.97	2.72224
31.98	2.71731
31.99	2.68935
32	2.72685
32.01	2.72553
32.02	2.69527
32.03	2.73935
32.04	2.6979
32.05	2.68573
32.06	2.72948
32.07	2.75876
32.08	2.7331
32.09	2.70283
32.1	2.69428
32.11	2.73277
32.12	2.68869
32.13	2.7275
32.14	2.72454
32.15	2.7081
32.16	2.71336
32.17	2.72652
32.18	2.72356
32.19	2.71698
32.2	2.72586
32.21	2.70415
32.22	2.71797
32.23	2.70053
32.24	2.72816
32.25	2.72454
32.26	2.71171
32.27	2.70546
32.28	2.67092
32.29	2.69494
32.3	2.71829
32.31	2.71533
32.32	2.68474
32.33	2.69954
32.34	2.71204
32.35	2.70875
32.36	2.70382
32.37	2.70875
32.38	2.68639
32.39	2.7081
32.4	2.69132
32.41	2.73869
32.42	2.71961
32.43	2.71237
32.44	2.7275
32.45	2.73836
32.46	2.71007
32.47	2.70744
32.48	2.71797
32.49	2.71698
32.5	2.70645
32.51	2.71731
32.52	2.68408
32.53	2.70415
32.54	2.70546
32.55	2.69362
32.56	2.71171
32.57	2.72882
32.58	2.73014
32.59	2.6956
32.6	2.70974
32.61	2.7104
32.62	2.69757
32.63	2.70086
32.64	2.70218
32.65	2.69823
32.66	2.71895
32.67	2.75086
32.68	2.69921
32.69	2.68606
32.7	2.68935
32.71	2.69033
32.72	2.71862
32.73	2.71007
32.74	2.7104
32.75	2.69198
32.76	2.75415
32.77	2.7252
32.78	2.70843
32.79	2.6752
32.8	2.73902
32.81	2.72093
32.82	2.68836
32.83	2.72257
32.84	2.69592
32.85	2.67849
32.86	2.69625
32.87	2.72158
32.88	2.74165
32.89	2.71106
32.9	2.69494
32.91	2.7081
32.92	2.69395
32.93	2.71171
32.94	2.68441
32.95	2.71895
32.96	2.71764
32.97	2.70612
32.98	2.68869
32.99	2.69461
33	2.6706
33.01	2.69
33.02	2.69625
33.03	2.74132
33.04	2.72586
33.05	2.71468
33.06	2.72915
33.07	2.71007
33.08	2.70908
33.09	2.68836
33.1	2.70678
33.11	2.69527
33.12	2.71303
33.13	2.71665
33.14	2.69296
33.15	2.72948
33.16	2.69724
33.17	2.71336
33.18	2.73178
33.19	2.7025
33.2	2.67717
33.21	2.70448
33.22	2.71303
33.23	2.71961
33.24	2.73902
33.25	2.73244
33.26	2.73441
33.27	2.70777
33.28	2.72356
33.29	2.72915
33.3	2.74198
33.31	2.7558
33.32	2.72783
33.33	2.72553
33.34	2.70152
33.35	2.73968
33.36	2.72783
33.37	2.69362
33.38	2.71171
33.39	2.71895
33.4	2.72487
33.41	2.7275
33.42	2.71402
33.43	2.71204
33.44	2.71928
33.45	2.71435
33.46	2.70974
33.47	2.70119
33.48	2.69099
33.49	2.71171
33.5	2.70612
33.51	2.70283
33.52	2.69921
33.53	2.70185
33.54	2.7127
33.55	2.70908
33.56	2.6775
33.57	2.70415
33.58	2.7252
33.59	2.7104
33.6	2.71139
33.61	2.73507
33.62	2.71336
33.63	2.72948
33.64	2.72849
33.65	2.70579
33.66	2.69856
33.67	2.68046
33.68	2.6979
33.69	2.68244
33.7	2.70645
33.71	2.74066
33.72	2.70086
33.73	2.70382
33.74	2.72882
33.75	2.71303
33.76	2.69
33.77	2.6831
33.78	2.72619
33.79	2.71632
33.8	2.7229
33.81	2.715
33.82	2.71862
33.83	2.71895
33.84	2.70283
33.85	2.70579
33.86	2.70316
33.87	2.715
33.88	2.71237
33.89	2.7081
33.9	2.68836
33.91	2.69592
33.92	2.69461
33.93	2.71468
33.94	2.7025
33.95	2.72586
33.96	2.70086
33.97	2.71007
33.98	2.69625
33.99	2.71007
34	2.71007
34.01	2.69099
34.02	2.72158
34.03	2.72125
34.04	2.72191
34.05	2.69823
34.06	2.69461
34.07	2.70777
34.08	2.73145
34.09	2.66632
34.1	2.70481
34.11	2.71895
34.12	2.72553
34.13	2.71566
34.14	2.70546
34.15	2.69592
34.16	2.70579
34.17	2.71632
34.18	2.7229
34.19	2.67487
34.2	2.70185
34.21	2.71336
34.22	2.70579
34.23	2.70514
34.24	2.71007
34.25	2.71303
34.26	2.70843
34.27	2.70185
34.28	2.6956
34.29	2.71204
34.3	2.75251
34.31	2.70514
34.32	2.71369
34.33	2.67882
34.34	2.69329
34.35	2.71468
34.36	2.71139
34.37	2.72356
34.38	2.71731
34.39	2.72389
34.4	2.70481
34.41	2.68902
34.42	2.71369
34.43	2.70349
34.44	2.71171
34.45	2.69362
34.46	2.7081
34.47	2.71731
34.48	2.67027
34.49	2.7002
34.5	2.71533
34.51	2.7354
34.52	2.69198
34.53	2.69296
34.54	2.71961
34.55	2.72158
34.56	2.69527
34.57	2.71171
34.58	2.72027
34.59	2.71303
34.6	2.69461
34.61	2.70152
34.62	2.72882
34.63	2.72027
34.64	2.72685
34.65	2.71599
34.66	2.69691
34.67	2.71928
34.68	2.71533
34.69	2.69823
34.7	2.70283
34.71	2.6979
34.72	2.69527
34.73	2.72257
34.74	2.74099
34.75	2.74264
34.76	2.69165
34.77	2.70678
34.78	2.70777
34.79	2.69165
34.8	2.73079
34.81	2.69329
34.82	2.71829
34.83	2.70777
34.84	2.70546
34.85	2.70711
34.86	2.70612
34.87	2.72191
34.88	2.7229
34.89	2.70777
34.9	2.70777
34.91	2.71139
34.92	2.70777
34.93	2.70152
34.94	2.71764
34.95	2.72948
34.96	2.69329
34.97	2.71007
34.98	2.70843
34.99	2.70514
35	2.71862
35.01	2.70382
35.02	2.69494
35.03	2.72586
35.04	2.71961
35.05	2.69592
35.06	2.68112
35.07	2.70941
35.08	2.71007
35.09	2.69
35.1	2.73343
35.11	2.74362
35.12	2.71566
35.13	2.7229
35.14	2.72586
35.15	2.72093
35.16	2.69954
35.17	2.70974
35.18	2.74329
35.19	2.7354
35.2	2.69691
35.21	2.73803
35.22	2.70974
35.23	2.70843
35.24	2.68869
35.25	2.69461
35.26	2.72224
35.27	2.72685
35.28	2.71764
35.29	2.71961
35.3	2.71139
35.31	2.70415
35.32	2.72553
35.33	2.72027
35.34	2.74033
35.35	2.70481
35.36	2.67257
35.37	2.70152
35.38	2.7252
35.39	2.70711
35.4	2.71073
35.41	2.73672
35.42	2.70974
35.43	2.68277
35.44	2.68869
35.45	2.69198
35.46	2.69395
35.47	2.69231
35.48	2.71829
35.49	2.67882
35.5	2.67487
35.51	2.71665
35.52	2.71665
35.53	2.6831
35.54	2.71073
35.55	2.70349
35.56	2.72454
35.57	2.73376
35.58	2.73639
35.59	2.71566
35.6	2.68474
35.61	2.70119
35.62	2.73112
35.63	2.68704
35.64	2.6979
35.65	2.71007
35.66	2.69494
35.67	2.72027
35.68	2.68902
35.69	2.69954
35.7	2.70119
35.71	2.72652
35.72	2.68178
35.73	2.72487
35.74	2.69757
35.75	2.70711
35.76	2.70481
35.77	2.6956
35.78	2.74264
35.79	2.7354
35.8	2.6854
35.81	2.67717
35.82	2.71731
35.83	2.72948
35.84	2.70875
35.85	2.74527
35.86	2.72981
35.87	2.71533
35.88	2.72257
35.89	2.71599
35.9	2.69395
35.91	2.70711
35.92	2.7127
35.93	2.71402
35.94	2.7104
35.95	2.69264
35.96	2.69329
35.97	2.69987
35.98	2.69856
35.99	2.68277
36	2.70415
36.01	2.72125
36.02	2.70283
36.03	2.70119
36.04	2.72224
36.05	2.68342
36.06	2.68967
36.07	2.73211
36.08	2.70974
36.09	2.71632
36.1	2.69856
36.11	2.73112
36.12	2.75876
36.13	2.74132
36.14	2.71862
36.15	2.72685
36.16	2.72948
36.17	2.72224
36.18	2.68935
36.19	2.71797
36.2	2.70843
36.21	2.72619
36.22	2.72027
36.23	2.72948
36.24	2.7206
36.25	2.71106
36.26	2.71797
36.27	2.70941
36.28	2.6752
36.29	2.72948
36.3	2.70843
36.31	2.69461
36.32	2.69198
36.33	2.70185
36.34	2.71139
36.35	2.68836
36.36	2.72224
36.37	2.73112
36.38	2.73244
36.39	2.70744
36.4	2.67882
36.41	2.71698
36.42	2.71862
36.43	2.72652
36.44	2.73968
36.45	2.68869
36.46	2.73145
36.47	2.70546
36.48	2.69132
36.49	2.66138
36.5	2.69296
36.51	2.69231
36.52	2.7206
36.53	2.71139
36.54	2.6979
36.55	2.6956
36.56	2.6854
36.57	2.71566
36.58	2.69724
36.59	2.70974
36.6	2.71731
36.61	2.69954
36.62	2.70349
36.63	2.70612
36.64	2.71106
36.65	2.7104
36.66	2.70711
36.67	2.71698
36.68	2.70382
36.69	2.69296
36.7	2.71961
36.71	2.71336
36.72	2.70415
36.73	2.69066
36.74	2.69658
36.75	2.69296
36.76	2.70744
36.77	2.71139
36.78	2.70612
36.79	2.72783
36.8	2.71961
36.81	2.68342
36.82	2.67191
36.83	2.71369
36.84	2.72783
36.85	2.70086
36.86	2.6956
36.87	2.70843
36.88	2.67783
36.89	2.69724
36.9	2.70481
36.91	2.6752
36.92	2.70481
36.93	2.71073
36.94	2.71698
36.95	2.70218
36.96	2.69329
36.97	2.69066
36.98	2.715
36.99	2.68375
37	2.70152
37.01	2.69527
37.02	2.69395
37.03	2.72158
37.04	2.70941
37.05	2.69231
37.06	2.69198
37.07	2.67586
37.08	2.68573
37.09	2.69264
37.1	2.71764
37.11	2.71369
37.12	2.6831
37.13	2.71402
37.14	2.71994
37.15	2.74033
37.16	2.72257
37.17	2.70843
37.18	2.69362
37.19	2.68375
37.2	2.70875
37.21	2.72981
37.22	2.75218
37.23	2.72224
37.24	2.70875
37.25	2.69329
37.26	2.68112
37.27	2.70119
37.28	2.70678
37.29	2.68474
37.3	2.65546
37.31	2.69856
37.32	2.70974
37.33	2.69987
37.34	2.72191
37.35	2.71007
37.36	2.70678
37.37	2.70415
37.38	2.66928
37.39	2.68244
37.4	2.68935
37.41	2.68737
37.42	2.71336
37.43	2.71237
37.44	2.70382
37.45	2.69954
37.46	2.72718
37.47	2.70185
37.48	2.70514
37.49	2.69
37.5	2.70777
37.51	2.67092
37.52	2.71402
37.53	2.70218
37.54	2.69658
37.55	2.7206
37.56	2.6854
37.57	2.70777
37.58	2.69954
37.59	2.66533
37.6	2.69362
37.61	2.71928
37.62	2.70777
37.63	2.69592
37.64	2.69921
37.65	2.69066
37.66	2.71698
37.67	2.69132
37.68	2.69395
37.69	2.69658
37.7	2.73244
37.71	2.68967
37.72	2.72586
37.73	2.73869
37.74	2.7252
37.75	2.70711
37.76	2.73079
37.77	2.69921
37.78	2.68474
37.79	2.72553
37.8	2.73639
37.81	2.72882
37.82	2.74132
37.83	2.73014
37.84	2.71829
37.85	2.73639
37.86	2.72619
37.87	2.7127
37.88	2.71139
37.89	2.7104
37.9	2.7104
37.91	2.71994
37.92	2.71336
37.93	2.72224
37.94	2.72224
37.95	2.73803
37.96	2.7377
37.97	2.72422
37.98	2.73047
37.99	2.6752
38	2.73408
38.01	2.67717
38.02	2.69494
38.03	2.72487
38.04	2.68902
38.05	2.65415
38.06	2.70514
38.07	2.71566
38.08	2.67816
38.09	2.73672
38.1	2.71139
38.11	2.68639
38.12	2.70645
38.13	2.70415
38.14	2.71928
38.15	2.70744
38.16	2.71007
38.17	2.70349
38.18	2.73277
38.19	2.74395
38.2	2.7275
38.21	2.67882
38.22	2.70086
38.23	2.71139
38.24	2.69395
38.25	2.71106
38.26	2.71073
38.27	2.7127
38.28	2.69592
38.29	2.70053
38.3	2.71468
38.31	2.72849
38.32	2.70283
38.33	2.72027
38.34	2.71402
38.35	2.70185
38.36	2.70152
38.37	2.72816
38.38	2.71698
38.39	2.72487
38.4	2.72257
38.41	2.69099
38.42	2.69198
38.43	2.71994
38.44	2.72849
38.45	2.72093
38.46	2.73277
38.47	2.68737
38.48	2.71139
38.49	2.71204
38.5	2.72849
38.51	2.7275
38.52	2.70218
38.53	2.73968
38.54	2.71928
38.55	2.69724
38.56	2.69329
38.57	2.69757
38.58	2.70415
38.59	2.72849
38.6	2.73145
38.61	2.71106
38.62	2.71171
38.63	2.69856
38.64	2.73902
38.65	2.69132
38.66	2.70152
38.67	2.70185
38.68	2.68408
38.69	2.67158
38.7	2.70415
38.71	2.71435
38.72	2.70908
38.73	2.70843
38.74	2.715
38.75	2.69198
38.76	2.68441
38.77	2.68737
38.78	2.71171
38.79	2.69
38.8	2.71632
38.81	2.75119
38.82	2.7081
38.83	2.68178
38.84	2.7104
38.85	2.6854
38.86	2.72027
38.87	2.73672
38.88	2.69066
38.89	2.68737
38.9	2.7104
38.91	2.71764
38.92	2.715
38.93	2.71303
38.94	2.71237
38.95	2.69494
38.96	2.68671
38.97	2.69691
38.98	2.71862
38.99	2.71961
39	2.68803
39.01	2.69099
39.02	2.69954
39.03	2.72323
39.04	2.69461
39.05	2.69231
39.06	2.73902
39.07	2.73902
39.08	2.68474
39.09	2.69757
39.1	2.70448
39.11	2.71303
39.12	2.70415
39.13	2.6752
39.14	2.69461
39.15	2.68902
39.16	2.70645
39.17	2.71632
39.18	2.72422
39.19	2.70086
39.2	2.7104
39.21	2.71797
39.22	2.69395
39.23	2.70514
39.24	2.71073
39.25	2.74297
39.26	2.66007
39.27	2.69527
39.28	2.72125
39.29	2.69527
39.3	2.70678
39.31	2.68836
39.32	2.71862
39.33	2.69329
39.34	2.72356
39.35	2.69592
39.36	2.68507
39.37	2.69
39.38	2.68112
39.39	2.69132
39.4	2.70448
39.41	2.69099
39.42	2.7104
39.43	2.69264
39.44	2.70579
39.45	2.67685
39.46	2.71073
39.47	2.69921
39.48	2.69889
39.49	2.73145
39.5	2.7502
39.51	2.70843
39.52	2.71599
39.53	2.68441
39.54	2.7104
39.55	2.71007
39.56	2.70875
39.57	2.70843
39.58	2.72356
39.59	2.72487
39.6	2.70481
39.61	2.69428
39.62	2.71139
39.63	2.69066
39.64	2.71007
39.65	2.71895
39.66	2.67388
39.67	2.68869
39.68	2.69296
39.69	2.67882
39.7	2.70843
39.71	2.69264
39.72	2.70152
39.73	2.71797
39.74	2.73737
39.75	2.72652
39.76	2.72158
39.77	2.72093
39.78	2.73112
39.79	2.72323
39.8	2.70415
39.81	2.70514
39.82	2.70843
39.83	2.70744
39.84	2.71106
39.85	2.70382
39.86	2.7252
39.87	2.72915
39.88	2.68342
39.89	2.7025
39.9	2.70645
39.91	2.7331
39.92	2.71007
39.93	2.70612
39.94	2.69592
39.95	2.71698
39.96	2.7127
39.97	2.68671
39.98	2.69494
39.99	2.7331
40	2.71961
40.01	2.69099
40.02	2.71369
40.03	2.70218
40.04	2.71698
40.05	2.70481
40.06	2.65941
40.07	2.70744
40.08	2.72158
40.09	2.68112
40.1	2.69625
40.11	2.70711
40.12	2.67882
40.13	2.69823
40.14	2.69066
40.15	2.72125
40.16	2.7025
40.17	2.71731
40.18	2.72389
40.19	2.68639
40.2	2.71566
40.21	2.72257
40.22	2.69066
40.23	2.73178
40.24	2.72619
40.25	2.70218
40.26	2.70316
40.27	2.70316
40.28	2.70941
40.29	2.72652
40.3	2.70514
40.31	2.71599
40.32	2.73211
40.33	2.71961
40.34	2.69198
40.35	2.70678
40.36	2.71797
40.37	2.70875
40.38	2.70579
40.39	2.7252
40.4	2.74757
40.41	2.71994
40.42	2.69132
40.43	2.72849
40.44	2.70152
40.45	2.70744
40.46	2.69823
40.47	2.70875
40.48	2.74165
40.49	2.72619
40.5	2.72323
40.51	2.71731
40.52	2.71369
40.53	2.71764
40.54	2.73112
40.55	2.69
40.56	2.71106
40.57	2.68967
40.58	2.68935
40.59	2.70119
40.6	2.70349
40.61	2.70283
40.62	2.70481
40.63	2.71073
40.64	2.71566
40.65	2.73672
40.66	2.69987
40.67	2.7206
40.68	2.71961
40.69	2.72652
40.7	2.73079
40.71	2.71369
40.72	2.71599
40.73	2.71369
40.74	2.72685
40.75	2.71336
40.76	2.70974
40.77	2.72356
40.78	2.75316
40.79	2.7354
40.8	2.70448
40.81	2.66961
40.82	2.67717
40.83	2.72487
40.84	2.74395
40.85	2.70579
40.86	2.73737
40.87	2.70053
40.88	2.70152
40.89	2.71468
40.9	2.75316
40.91	2.70218
40.92	2.6831
40.93	2.69165
40.94	2.72816
40.95	2.70218
40.96	2.66928
40.97	2.72191
40.98	2.70941
40.99	2.71764
41	2.69921
41.01	2.6729
41.02	2.72454
41.03	2.71533
41.04	2.72619
41.05	2.73079
41.06	2.69494
41.07	2.68671
41.08	2.70843
41.09	2.71961
41.1	2.70053
41.11	2.71007
41.12	2.70448
41.13	2.71007
41.14	2.73014
41.15	2.72882
41.16	2.71369
41.17	2.70645
41.18	2.69461
41.19	2.70579
41.2	2.68474
41.21	2.6979
41.22	2.72027
41.23	2.72323
41.24	2.6831
41.25	2.72553
41.26	2.72356
41.27	2.69757
41.28	2.68474
41.29	2.72586
41.3	2.71928
41.31	2.69428
41.32	2.70218
41.33	2.74165
41.34	2.69592
41.35	2.70283
41.36	2.71895
41.37	2.73178
41.38	2.69428
41.39	2.71204
41.4	2.73014
41.41	2.72323
41.42	2.69691
41.43	2.68474
41.44	2.71402
41.45	2.69954
41.46	2.67849
41.47	2.70053
41.48	2.70744
41.49	2.74165
41.5	2.71829
41.51	2.67981
41.52	2.6854
41.53	2.6831
41.54	2.68573
41.55	2.71829
41.56	2.73145
41.57	2.72652
41.58	2.73836
41.59	2.7081
41.6	2.71862
41.61	2.70711
41.62	2.715
41.63	2.72224
41.64	2.69132
41.65	2.69823
41.66	2.70875
41.67	2.70744
41.68	2.71961
41.69	2.66829
41.7	2.70843
41.71	2.6729
41.72	2.69296
41.73	2.71599
41.74	2.68441
41.75	2.71665
41.76	2.71698
41.77	2.72454
41.78	2.73606
41.79	2.72915
41.8	2.68441
41.81	2.6706
41.82	2.72224
41.83	2.70546
41.84	2.71303
41.85	2.69625
41.86	2.71599
41.87	2.72191
41.88	2.72356
41.89	2.69691
41.9	2.68803
41.91	2.71139
41.92	2.67783
41.93	2.69329
41.94	2.72093
41.95	2.69231
41.96	2.67849
41.97	2.70711
41.98	2.71007
41.99	2.6979
42	2.71336
42.01	2.69757
42.02	2.70119
42.03	2.72356
42.04	2.67487
42.05	2.67783
42.06	2.70678
42.07	2.65119
42.08	2.71369
42.09	2.70316
42.1	2.69099
42.11	2.70941
42.12	2.72783
42.13	2.68507
42.14	2.70185
42.15	2.74297
42.16	2.72487
42.17	2.73178
42.18	2.6775
42.19	2.67454
42.2	2.72191
42.21	2.69
42.22	2.68704
42.23	2.71599
42.24	2.70349
42.25	2.68671
42.26	2.71533
42.27	2.70579
42.28	2.73014
42.29	2.71632
42.3	2.70645
42.31	2.70514
42.32	2.6956
42.33	2.71106
42.34	2.70843
42.35	2.69987
42.36	2.67882
42.37	2.70283
42.38	2.70316
42.39	2.70218
42.4	2.74033
42.41	2.74724
42.42	2.72652
42.43	2.7002
42.44	2.70645
42.45	2.69987
42.46	2.7275
42.47	2.71764
42.48	2.72981
42.49	2.73935
42.5	2.68803
42.51	2.71204
42.52	2.69658
42.53	2.75283
42.54	2.74099
42.55	2.71007
42.56	2.69592
42.57	2.69724
42.58	2.71171
42.59	2.70908
42.6	2.72816
42.61	2.73408
42.62	2.70283
42.63	2.70908
42.64	2.75382
42.65	2.7275
42.66	2.68869
42.67	2.72652
42.68	2.71468
42.69	2.71073
42.7	2.73408
42.71	2.73211
42.72	2.69889
42.73	2.71862
42.74	2.72981
42.75	2.72257
42.76	2.69461
42.77	2.67487
42.78	2.72783
42.79	2.74527
42.8	2.71665
42.81	2.70382
42.82	2.68441
42.83	2.71764
42.84	2.73145
42.85	2.69921
42.86	2.67948
42.87	2.71073
42.88	2.72718
42.89	2.73573
42.9	2.74165
42.91	2.72224
42.92	2.71237
42.93	2.72093
42.94	2.69066
42.95	2.70415
42.96	2.72586
42.97	2.73737
42.98	2.74428
42.99	2.71862
43	2.71928
43.01	2.71237
43.02	2.69395
43.03	2.71303
43.04	2.74231
43.05	2.72356
43.06	2.71731
43.07	2.72027
43.08	2.71303
43.09	2.68671
43.1	2.67553
43.11	2.70086
43.12	2.7025
43.13	2.71402
43.14	2.70119
43.15	2.67783
43.16	2.70711
43.17	2.71862
43.18	2.68803
43.19	2.69198
43.2	2.70941
43.21	2.68178
43.22	2.68046
43.23	2.68507
43.24	2.69856
43.25	2.69856
43.26	2.70514
43.27	2.6979
43.28	2.6706
43.29	2.68935
43.3	2.69691
43.31	2.70875
43.32	2.72093
43.33	2.70283
43.34	2.69889
43.35	2.70415
43.36	2.70218
43.37	2.69264
43.38	2.69527
43.39	2.71994
43.4	2.73376
43.41	2.68342
43.42	2.69395
43.43	2.69724
43.44	2.70316
43.45	2.71007
43.46	2.7127
43.47	2.70152
43.48	2.71237
43.49	2.71961
43.5	2.73869
43.51	2.73343
43.52	2.70612
43.53	2.69329
43.54	2.69527
43.55	2.68408
43.56	2.70514
43.57	2.72652
43.58	2.71665
43.59	2.72718
43.6	2.70645
43.61	2.7081
43.62	2.70283
43.63	2.71303
43.64	2.72454
43.65	2.69198
43.66	2.7331
43.67	2.70185
43.68	2.71336
43.69	2.71303
43.7	2.70481
43.71	2.72093
43.72	2.71797
43.73	2.7025
43.74	2.70678
43.75	2.72158
43.76	2.68737
43.77	2.71994
43.78	2.68606
43.79	2.72125
43.8	2.70086
43.81	2.70843
43.82	2.71139
43.83	2.71007
43.84	2.74494
43.85	2.69625
43.86	2.70612
43.87	2.69987
43.88	2.69329
43.89	2.70744
43.9	2.71369
43.91	2.68244
43.92	2.70678
43.93	2.68704
43.94	2.72191
43.95	2.70086
43.96	2.71171
43.97	2.70349
43.98	2.68803
43.99	2.71106
44	2.68803
44.01	2.7252
44.02	2.70218
44.03	2.69264
44.04	2.72125
44.05	2.74428
44.06	2.70941
44.07	2.68211
44.08	2.68079
44.09	2.68671
44.1	2.73803
44.11	2.73902
44.12	2.71928
44.13	2.69231
44.14	2.68145
44.15	2.71468
44.16	2.72422
44.17	2.74527
44.18	2.69296
44.19	2.70612
44.2	2.72685
44.21	2.70415
44.22	2.72356
44.23	2.70481
44.24	2.69527
44.25	2.7275
44.26	2.71928
44.27	2.70744
44.28	2.70612
44.29	2.69
44.3	2.67783
44.31	2.72652
44.32	2.69625
44.33	2.71468
44.34	2.7377
44.35	2.72454
44.36	2.74494
44.37	2.70744
44.38	2.6775
44.39	2.69724
44.4	2.6956
44.41	2.70546
44.42	2.70119
44.43	2.70218
44.44	2.71336
44.45	2.71468
44.46	2.74231
44.47	2.73014
44.48	2.71171
44.49	2.71171
44.5	2.6979
44.51	2.71402
44.52	2.7104
44.53	2.70382
44.54	2.72323
44.55	2.72422
44.56	2.70711
44.57	2.68639
44.58	2.72422
44.59	2.70283
44.6	2.70546
44.61	2.71237
44.62	2.69
44.63	2.73343
44.64	2.74757
44.65	2.72685
44.66	2.73112
44.67	2.73343
44.68	2.71007
44.69	2.70481
44.7	2.71764
44.71	2.72027
44.72	2.71698
44.73	2.71139
44.74	2.69527
44.75	2.6956
44.76	2.69296
44.77	2.68211
44.78	2.69165
44.79	2.70119
44.8	2.71435
44.81	2.70612
44.82	2.72323
44.83	2.73211
44.84	2.71994
44.85	2.72849
44.86	2.71961
44.87	2.71369
44.88	2.71731
44.89	2.7025
44.9	2.7104
44.91	2.67553
44.92	2.69395
44.93	2.69987
44.94	2.72323
44.95	2.72816
44.96	2.70349
44.97	2.6854
44.98	2.70843
44.99	2.69691
45	2.71829
45.01	2.69954
45.02	2.69296
45.03	2.69625
45.04	2.70185
45.05	2.72981
45.06	2.70481
45.07	2.72191
45.08	2.73211
45.09	2.73737
45.1	2.73178
45.11	2.70283
45.12	2.64823
45.13	2.67553
45.14	2.70514
45.15	2.7331
45.16	2.71566
45.17	2.7081
45.18	2.70645
45.19	2.70514
45.2	2.71139
45.21	2.68803
45.22	2.72586
45.23	2.70053
45.24	2.70086
45.25	2.73672
45.26	2.72783
45.27	2.70546
45.28	2.69099
45.29	2.70481
45.3	2.71007
45.31	2.71106
45.32	2.72981
45.33	2.73112
45.34	2.72454
45.35	2.72553
45.36	2.72586
45.37	2.73376
45.38	2.7127
45.39	2.7331
45.4	2.73244
45.41	2.70283
45.42	2.73935
45.43	2.69264
45.44	2.72849
45.45	2.72619
45.46	2.71961
45.47	2.70316
45.48	2.71764
45.49	2.73047
45.5	2.70579
45.51	2.70152
45.52	2.7354
45.53	2.70941
45.54	2.7002
45.55	2.71303
45.56	2.70678
45.57	2.67652
45.58	2.72027
45.59	2.73474
45.6	2.73573
45.61	2.71533
45.62	2.73079
45.63	2.69856
45.64	2.68507
45.65	2.72487
45.66	2.72586
45.67	2.7252
45.68	2.69921
45.69	2.71829
45.7	2.69066
45.71	2.72718
45.72	2.71862
45.73	2.71007
45.74	2.71862
45.75	2.69362
45.76	2.71632
45.77	2.71764
45.78	2.70612
45.79	2.7206
45.8	2.72619
45.81	2.69954
45.82	2.69921
45.83	2.72915
45.84	2.72981
45.85	2.73211
45.86	2.73376
45.87	2.70678
45.88	2.71829
45.89	2.72915
45.9	2.70448
45.91	2.69757
45.92	2.7127
45.93	2.7252
45.94	2.74428
45.95	2.73047
45.96	2.69921
45.97	2.71797
45.98	2.71204
45.99	2.69757
46	2.72553
46.01	2.71566
46.02	2.68836
46.03	2.7081
46.04	2.71468
46.05	2.71599
46.06	2.72685
46.07	2.73211
46.08	2.71106
46.09	2.69724
46.1	2.7354
46.11	2.72027
46.12	2.69757
46.13	2.70974
46.14	2.72849
46.15	2.72586
46.16	2.69362
46.17	2.68935
46.18	2.70415
46.19	2.73277
46.2	2.69921
46.21	2.70218
46.22	2.69625
46.23	2.72849
46.24	2.69757
46.25	2.72652
46.26	2.74132
46.27	2.74428
46.28	2.71402
46.29	2.69329
46.3	2.72718
46.31	2.70645
46.32	2.72356
46.33	2.72685
46.34	2.72158
46.35	2.71599
46.36	2.75053
46.37	2.71961
46.38	2.69428
46.39	2.70349
46.4	2.72323
46.41	2.71566
46.42	2.67915
46.43	2.73902
46.44	2.73014
46.45	2.69428
46.46	2.6831
46.47	2.67948
46.48	2.70546
46.49	2.7002
46.5	2.69921
46.51	2.74494
46.52	2.70053
46.53	2.69987
46.54	2.73277
46.55	2.73737
46.56	2.73672
46.57	2.70185
46.58	2.71073
46.59	2.73606
46.6	2.72915
46.61	2.71171
46.62	2.69592
46.63	2.71402
46.64	2.71303
46.65	2.68935
46.66	2.74132
46.67	2.70843
46.68	2.70053
46.69	2.71402
46.7	2.70711
46.71	2.70678
46.72	2.7025
46.73	2.71533
46.74	2.71468
46.75	2.67915
46.76	2.67487
46.77	2.70645
46.78	2.69494
46.79	2.69658
46.8	2.72422
46.81	2.69889
46.82	2.72323
46.83	2.73145
46.84	2.72224
46.85	2.70941
46.86	2.69921
46.87	2.69691
46.88	2.70941
46.89	2.69231
46.9	2.72093
46.91	2.72816
46.92	2.71632
46.93	2.69823
46.94	2.70546
46.95	2.70777
46.96	2.73047
46.97	2.70579
46.98	2.74132
46.99	2.75349
47	2.72125
47.01	2.68507
47.02	2.68869
47.03	2.72422
47.04	2.69494
47.05	2.71106
47.06	2.7275
47.07	2.7127
47.08	2.73672
47.09	2.70941
47.1	2.72652
47.11	2.72224
47.12	2.69921
47.13	2.70579
47.14	2.72981
47.15	2.71435
47.16	2.70744
47.17	2.69987
47.18	2.70579
47.19	2.69231
47.2	2.69527
47.21	2.69954
47.22	2.71533
47.23	2.715
47.24	2.70481
47.25	2.70546
47.26	2.72257
47.27	2.72718
47.28	2.69592
47.29	2.6877
47.3	2.6979
47.31	2.71566
47.32	2.73573
47.33	2.70152
47.34	2.70941
47.35	2.7104
47.36	2.67849
47.37	2.70448
47.38	2.72093
47.39	2.73145
47.4	2.69066
47.41	2.74724
47.42	2.74658
47.43	2.72882
47.44	2.69921
47.45	2.73441
47.46	2.71073
47.47	2.67948
47.48	2.70875
47.49	2.73079
47.5	2.72422
47.51	2.71764
47.52	2.69856
47.53	2.72125
47.54	2.70546
47.55	2.73343
47.56	2.69658
47.57	2.70283
47.58	2.70152
47.59	2.69231
47.6	2.71336
47.61	2.6854
47.62	2.68342
47.63	2.72882
47.64	2.72454
47.65	2.69264
47.66	2.69296
47.67	2.69691
47.68	2.71928
47.69	2.74033
47.7	2.72454
47.71	2.71632
47.72	2.7127
47.73	2.73145
47.74	2.7104
47.75	2.72685
47.76	2.69592
47.77	2.71237
47.78	2.70382
47.79	2.72257
47.8	2.71961
47.81	2.67652
47.82	2.69757
47.83	2.7104
47.84	2.72027
47.85	2.70218
47.86	2.70843
47.87	2.68112
47.88	2.69264
47.89	2.70218
47.9	2.71237
47.91	2.71369
47.92	2.66895
47.93	2.7002
47.94	2.73079
47.95	2.67717
47.96	2.67882
47.97	2.70711
47.98	2.7275
47.99	2.71566
48	2.66895
48.01	2.65744
48.02	2.68704
48.03	2.69231
48.04	2.69691
48.05	2.71665
48.06	2.73606
48.07	2.7229
48.08	2.69757
48.09	2.6854
48.1	2.6877
48.11	2.71204
48.12	2.72093
48.13	2.72981
48.14	2.75876
48.15	2.72191
48.16	2.71961
48.17	2.74691
48.18	2.68803
48.19	2.69889
48.2	2.72915
48.21	2.75514
48.22	2.70349
48.23	2.71764
48.24	2.67158
48.25	2.67619
48.26	2.69461
48.27	2.71171
48.28	2.71402
48.29	2.73639
48.3	2.70415
48.31	2.69527
48.32	2.66994
48.33	2.70086
48.34	2.72027
48.35	2.73079
48.36	2.69954
48.37	2.71435
48.38	2.70316
48.39	2.70415
48.4	2.75876
48.41	2.73145
48.42	2.70777
48.43	2.70908
48.44	2.70645
48.45	2.68704
48.46	2.72389
48.47	2.70415
48.48	2.70152
48.49	2.68244
48.5	2.69987
48.51	2.70908
48.52	2.71139
48.53	2.70119
48.54	2.71402
48.55	2.71106
48.56	2.69165
48.57	2.70415
48.58	2.71204
48.59	2.66994
48.6	2.68935
48.61	2.71139
48.62	2.70119
48.63	2.72652
48.64	2.74856
48.65	2.72224
48.66	2.71994
48.67	2.73211
48.68	2.71007
48.69	2.73376
48.7	2.70086
48.71	2.70777
48.72	2.73441
48.73	2.7081
48.74	2.6752
48.75	2.70218
48.76	2.71336
48.77	2.69856
48.78	2.68803
48.79	2.72389
48.8	2.74856
48.81	2.69954
48.82	2.73014
48.83	2.71731
48.84	2.71533
48.85	2.70283
48.86	2.70185
48.87	2.70382
48.88	2.69987
48.89	2.68408
48.9	2.69889
48.91	2.69231
48.92	2.72125
48.93	2.71533
48.94	2.70382
48.95	2.71994
48.96	2.7127
48.97	2.70579
48.98	2.71632
48.99	2.71928
49	2.74033
49.01	2.72619
49.02	2.74297
49.03	2.69724
49.04	2.72323
49.05	2.71204
49.06	2.68671
49.07	2.71468
49.08	2.7127
49.09	2.72783
49.1	2.68704
49.11	2.71764
49.12	2.71073
49.13	2.70777
49.14	2.69494
49.15	2.70119
49.16	2.70382
49.17	2.70711
49.18	2.72257
49.19	2.72323
49.2	2.7104
49.21	2.71073
49.22	2.715
49.23	2.69329
49.24	2.69329
49.25	2.72849
49.26	2.71435
49.27	2.69823
49.28	2.75283
49.29	2.73211
49.3	2.70744
49.31	2.70546
49.32	2.68639
49.33	2.71698
49.34	2.74165
49.35	2.69921
49.36	2.70711
49.37	2.75645
49.38	2.73902
49.39	2.72224
49.4	2.7081
49.41	2.70744
49.42	2.70218
49.43	2.69527
49.44	2.68737
49.45	2.72093
49.46	2.70546
49.47	2.68211
49.48	2.69198
49.49	2.70744
49.5	2.71632
49.51	2.71237
49.52	2.70843
49.53	2.72224
49.54	2.72783
49.55	2.71632
49.56	2.7081
49.57	2.69856
49.58	2.68803
49.59	2.69066
49.6	2.7275
49.61	2.69395
49.62	2.69461
49.63	2.71435
49.64	2.70218
49.65	2.66862
49.66	2.68112
49.67	2.66961
49.68	2.70481
49.69	2.70185
49.7	2.69461
49.71	2.75086
49.72	2.73836
49.73	2.70645
49.74	2.71402
49.75	2.69987
49.76	2.7081
49.77	2.71073
49.78	2.69592
49.79	2.70843
49.8	2.7206
49.81	2.72454
49.82	2.71797
49.83	2.72586
49.84	2.69823
49.85	2.72224
49.86	2.70678
49.87	2.67849
49.88	2.73079
49.89	2.71895
49.9	2.68244
49.91	2.71106
49.92	2.71665
49.93	2.6775
49.94	2.68342
49.95	2.72981
49.96	2.70349
49.97	2.7127
49.98	2.73507
49.99	2.69954
50	2.70546
