"BIO-KINE ASCII FILE"
"_COMMENT"	"MOS-500 Spectrometer"
"_COMMENT"	"Kinetics measurement"
"_COMMENT"	"Y Unit : Volt,  X Unit : s"
"_COMMENT"	"Excitation wavelength : 380 nm"
"_COMMENT"	"Fentes bandwidth =  1 nm"
"_COMMENT"	"HV= 1000V"
"_COMMENT"	"Timebase  1 =  .01 s   5001 pts"
"_SFM"	"SFM-400 /S  Advanced mode"
"_SFM"	"Ratio : S1: 2.5, S2: 0, S3: 0, S4: 1"
"_SFM"	"Content : S1: , S2: , S3: , S4:"
"_SFM"	"Concentration : S1: , S2: , S3: , S4:"
"_SFM"	"Total volume : 209 µl  Flow : 3.5 mL/s"
"_SFM"	"Acquisition start :  10 ms before stop"
"_SFM"	"cuve=FC-15, s1=10 ml , s2=10 ml , s3=10 ml , s4=1.9 ml"
"_UNITX"	"s"
"_UNITY"	"Volt"
"_DELTAX"	0
"_DATA"
1e-300	4.41243
0.01	4.45519
0.02	4.47131
0.03	4.54368
0.04	4.61112
0.05	4.63645
0.06	4.67527
0.07	4.66244
0.08	4.70981
0.09	4.75158
0.1	4.73941
0.11	4.75619
0.12	4.76902
0.13	4.77691
0.14	4.77033
0.15	4.78316
0.16	4.76014
0.17	4.76737
0.18	4.76968
0.19	4.76737
0.2	4.81968
0.21	4.82856
0.22	4.76935
0.23	4.77658
0.24	4.77494
0.25	4.81639
0.26	4.82988
0.27	4.80816
0.28	4.77987
0.29	4.80257
0.3	4.79994
0.31	4.79369
0.32	4.7802
0.33	4.81014
0.34	4.76836
0.35	4.76277
0.36	4.77461
0.37	4.77362
0.38	4.77757
0.39	4.81277
0.4	4.81935
0.41	4.79961
0.42	4.76014
0.43	4.7904
0.44	4.77527
0.45	4.77691
0.46	4.75389
0.47	4.75652
0.48	4.77658
0.49	4.77527
0.5	4.74895
0.51	4.74961
0.52	4.74204
0.53	4.74665
0.54	4.7381
0.55	4.77889
0.56	4.73514
0.57	4.72395
0.58	4.75454
0.59	4.75487
0.6	4.75849
0.61	4.71737
0.62	4.73349
0.63	4.74402
0.64	4.74533
0.65	4.74402
0.66	4.69402
0.67	4.70125
0.68	4.73678
0.69	4.74994
0.7	4.76244
0.71	4.7404
0.72	4.72592
0.73	4.73283
0.74	4.73908
0.75	4.74007
0.76	4.73777
0.77	4.73119
0.78	4.75586
0.79	4.71342
0.8	4.73382
0.81	4.7302
0.82	4.76737
0.83	4.75027
0.84	4.74007
0.85	4.70915
0.86	4.70257
0.87	4.73481
0.88	4.71803
0.89	4.68546
0.9	4.72921
0.91	4.71935
0.92	4.71375
0.93	4.70323
0.94	4.76211
0.95	4.7256
0.96	4.72987
0.97	4.68941
0.98	4.71704
0.99	4.72198
1	4.71902
1.01	4.71112
1.02	4.69829
1.03	4.69467
1.04	4.70816
1.05	4.72
1.06	4.68612
1.07	4.64763
1.08	4.70356
1.09	4.68612
1.1	4.70092
1.11	4.67954
1.12	4.67724
1.13	4.68941
1.14	4.70092
1.15	4.69204
1.16	4.69105
1.17	4.69467
1.18	4.66605
1.19	4.71079
1.2	4.67428
1.21	4.64829
1.22	4.71046
1.23	4.65816
1.24	4.65388
1.25	4.67987
1.26	4.65059
1.27	4.61967
1.28	4.66967
1.29	4.65619
1.3	4.66046
1.31	4.67757
1.32	4.6848
1.33	4.67559
1.34	4.64204
1.35	4.65191
1.36	4.67362
1.37	4.66901
1.38	4.69961
1.39	4.6779
1.4	4.66211
1.41	4.68546
1.42	4.66671
1.43	4.6302
1.44	4.63678
1.45	4.66737
1.46	4.67987
1.47	4.65915
1.48	4.69105
1.49	4.65882
1.5	4.67494
1.51	4.64928
1.52	4.64895
1.53	4.65355
1.54	4.64566
1.55	4.65125
1.56	4.68744
1.57	4.64895
1.58	4.6325
1.59	4.62132
1.6	4.61112
1.61	4.64697
1.62	4.67494
1.63	4.66967
1.64	4.69204
1.65	4.62921
1.66	4.59335
1.67	4.63513
1.68	4.64303
1.69	4.62691
1.7	4.63151
1.71	4.61112
1.72	4.62888
1.73	4.66967
1.74	4.64303
1.75	4.63579
1.76	4.66704
1.77	4.63415
1.78	4.62724
1.79	4.6098
1.8	4.57526
1.81	4.60388
1.82	4.67428
1.83	4.60914
1.84	4.62296
1.85	4.59368
1.86	4.5927
1.87	4.60388
1.88	4.59664
1.89	4.61605
1.9	4.6177
1.91	4.61737
1.92	4.59796
1.93	4.6325
1.94	4.61441
1.95	4.60849
1.96	4.61901
1.97	4.58875
1.98	4.56835
1.99	4.63776
2	4.60585
2.01	4.60355
2.02	4.58743
2.03	4.62197
2.04	4.60618
2.05	4.64763
2.06	4.61967
2.07	4.59039
2.08	4.61901
2.09	4.55849
2.1	4.59697
2.11	4.57625
2.12	4.59171
2.13	4.6075
2.14	4.56506
2.15	4.62296
2.16	4.61013
2.17	4.63151
2.18	4.58908
2.19	4.59928
2.2	4.58414
2.21	4.62493
2.22	4.5677
2.23	4.60322
2.24	4.58513
2.25	4.6052
2.26	4.57197
2.27	4.55191
2.28	4.62
2.29	4.65191
2.3	4.58908
2.31	4.55947
2.32	4.55651
2.33	4.56046
2.34	4.58842
2.35	4.58776
2.36	4.55552
2.37	4.56276
2.38	4.61013
2.39	4.58678
2.4	4.55289
2.41	4.54895
2.42	4.58776
2.43	4.5848
2.44	4.5871
2.45	4.57592
2.46	4.58316
2.47	4.56868
2.48	4.55092
2.49	4.54368
2.5	4.55191
2.51	4.56441
2.52	4.56967
2.53	4.56704
2.54	4.59763
2.55	4.59467
2.56	4.59467
2.57	4.56638
2.58	4.54993
2.59	4.51408
2.6	4.51769
2.61	4.57
2.62	4.53447
2.63	4.56112
2.64	4.58085
2.65	4.58842
2.66	4.57099
2.67	4.55849
2.68	4.50881
2.69	4.51769
2.7	4.49236
2.71	4.51737
2.72	4.54895
2.73	4.57559
2.74	4.56013
2.75	4.49533
2.76	4.52526
2.77	4.5348
2.78	4.55223
2.79	4.57066
2.8	4.54895
2.81	4.53579
2.82	4.53743
2.83	4.53217
2.84	4.54796
2.85	4.54138
2.86	4.55618
2.87	4.56177
2.88	4.5598
2.89	4.54401
2.9	4.53809
2.91	4.5371
2.92	4.54467
2.93	4.53579
2.94	4.54598
2.95	4.4973
2.96	4.54237
2.97	4.5223
2.98	4.49664
2.99	4.47427
3	4.5019
3.01	4.51375
3.02	4.48908
3.03	4.48579
3.04	4.48973
3.05	4.4973
3.06	4.48809
3.07	4.54237
3.08	4.47394
3.09	4.51013
3.1	4.51079
3.11	4.48348
3.12	4.48282
3.13	4.49598
3.14	4.5019
3.15	4.51079
3.16	4.46407
3.17	4.5121
3.18	4.5098
3.19	4.48282
3.2	4.48677
3.21	4.48677
3.22	4.50421
3.23	4.49565
3.24	4.52756
3.25	4.52362
3.26	4.47526
3.27	4.49039
3.28	4.45519
3.29	4.46144
3.3	4.50585
3.31	4.49138
3.32	4.52296
3.33	4.50388
3.34	4.4996
3.35	4.4996
3.36	4.46967
3.37	4.45717
3.38	4.49861
3.39	4.47921
3.4	4.49796
3.41	4.52131
3.42	4.46703
3.43	4.47888
3.44	4.4973
3.45	4.45947
3.46	4.49204
3.47	4.46013
3.48	4.48776
3.49	4.49105
3.5	4.48348
3.51	4.50684
3.52	4.46144
3.53	4.45157
3.54	4.48677
3.55	4.49631
3.56	4.45684
3.57	4.45684
3.58	4.49434
3.59	4.50585
3.6	4.47361
3.61	4.42986
3.62	4.48151
3.63	4.49335
3.64	4.46572
3.65	4.46078
3.66	4.46802
3.67	4.48776
3.68	4.46572
3.69	4.42493
3.7	4.45157
3.71	4.46013
3.72	4.44105
3.73	4.43907
3.74	4.45519
3.75	4.46144
3.76	4.42855
3.77	4.45651
3.78	4.42526
3.79	4.43052
3.8	4.47559
3.81	4.45585
3.82	4.47559
3.83	4.4519
3.84	4.43315
3.85	4.46769
3.86	4.45717
3.87	4.46046
3.88	4.44335
3.89	4.47164
3.9	4.43578
3.91	4.47131
3.92	4.49335
3.93	4.45914
3.94	4.46177
3.95	4.41999
3.96	4.39137
3.97	4.4121
3.98	4.42394
3.99	4.44499
4	4.45552
4.01	4.38973
4.02	4.40749
4.03	4.43151
4.04	4.45355
4.05	4.41736
4.06	4.44467
4.07	4.42526
4.08	4.46835
4.09	4.45092
4.1	4.42526
4.11	4.42789
4.12	4.45059
4.13	4.43151
4.14	4.42986
4.15	4.45059
4.16	4.40684
4.17	4.37953
4.18	4.37591
4.19	4.42328
4.2	4.43513
4.21	4.42197
4.22	4.4121
4.23	4.41341
4.24	4.43414
4.25	4.39993
4.26	4.42361
4.27	4.44763
4.28	4.41901
4.29	4.4144
4.3	4.39335
4.31	4.40848
4.32	4.40585
4.33	4.48282
4.34	4.44302
4.35	4.41243
4.36	4.39532
4.37	4.36374
4.38	4.43184
4.39	4.38841
4.4	4.37657
4.41	4.4042
4.42	4.4042
4.43	4.4121
4.44	4.40124
4.45	4.41506
4.46	4.36111
4.47	4.40157
4.48	4.41835
4.49	4.44006
4.5	4.40881
4.51	4.40947
4.52	4.40651
4.53	4.44072
4.54	4.43348
4.55	4.42657
4.56	4.39072
4.57	4.39993
4.58	4.43052
4.59	4.41703
4.6	4.41473
4.61	4.37887
4.62	4.40749
4.63	4.40749
4.64	4.40651
4.65	4.40519
4.66	4.4121
4.67	4.43019
4.68	4.41078
4.69	4.41605
4.7	4.39137
4.71	4.3644
4.72	4.36539
4.73	4.38315
4.74	4.39993
4.75	4.4042
4.76	4.44631
4.77	4.38019
4.78	4.41276
4.79	4.36078
4.8	4.36637
4.81	4.38085
4.82	4.38743
4.83	4.37887
4.84	4.38315
4.85	4.36407
4.86	4.36868
4.87	4.36539
4.88	4.35749
4.89	4.4019
4.9	4.40387
4.91	4.3973
4.92	4.344
4.93	4.3496
4.94	4.34828
4.95	4.39039
4.96	4.38118
4.97	4.37164
4.98	4.38677
4.99	4.37427
5	4.37789
5.01	4.35223
5.02	4.35387
5.03	4.37953
5.04	4.38808
5.05	4.35618
5.06	4.34762
5.07	4.34532
5.08	4.3769
5.09	4.36703
5.1	4.3496
5.11	4.33743
5.12	4.34664
5.13	4.38447
5.14	4.38052
5.15	4.37986
5.16	4.32756
5.17	4.3417
5.18	4.38183
5.19	4.35289
5.2	4.3621
5.21	4.34137
5.22	4.33479
5.23	4.32229
5.24	4.34072
5.25	4.35585
5.26	4.38085
5.27	4.34104
5.28	4.31604
5.29	4.32624
5.3	4.344
5.31	4.33019
5.32	4.31341
5.33	4.34894
5.34	4.3542
5.35	4.34861
5.36	4.33381
5.37	4.33973
5.38	4.34433
5.39	4.30749
5.4	4.3746
5.41	4.36999
5.42	4.34631
5.43	4.31604
5.44	4.3394
5.45	4.3292
5.46	4.33282
5.47	4.34532
5.48	4.30979
5.49	4.35387
5.5	4.33545
5.51	4.34795
5.52	4.34795
5.53	4.32591
5.54	4.34072
5.55	4.36177
5.56	4.34664
5.57	4.36539
5.58	4.31275
5.59	4.32229
5.6	4.33414
5.61	4.37657
5.62	4.34993
5.63	4.36144
5.64	4.32756
5.65	4.33479
5.66	4.35124
5.67	4.3519
5.68	4.30387
5.69	4.32394
5.7	4.32723
5.71	4.33183
5.72	4.32065
5.73	4.34466
5.74	4.32098
5.75	4.33183
5.76	4.31966
5.77	4.30881
5.78	4.32723
5.79	4.29433
5.8	4.3167
5.81	4.31933
5.82	4.32427
5.83	4.35091
5.84	4.34697
5.85	4.33446
5.86	4.3042
5.87	4.32591
5.88	4.37558
5.89	4.35058
5.9	4.32427
5.91	4.3371
5.92	4.33414
5.93	4.30617
5.94	4.29729
5.95	4.29466
5.96	4.29466
5.97	4.3144
5.98	4.28052
5.99	4.31999
6	4.30387
6.01	4.34664
6.02	4.35453
6.03	4.294
6.04	4.29565
6.05	4.30091
6.06	4.33479
6.07	4.3315
6.08	4.30354
6.09	4.27821
6.1	4.30617
6.11	4.2588
6.12	4.25716
6.13	4.30354
6.14	4.30848
6.15	4.3292
6.16	4.29631
6.17	4.28216
6.18	4.31078
6.19	4.29762
6.2	4.29696
6.21	4.29729
6.22	4.30585
6.23	4.30321
6.24	4.30683
6.25	4.32756
6.26	4.28775
6.27	4.28973
6.28	4.30256
6.29	4.31078
6.3	4.32591
6.31	4.2996
6.32	4.31703
6.33	4.27788
6.34	4.30946
6.35	4.26966
6.36	4.29038
6.37	4.26308
6.38	4.28644
6.39	4.27854
6.4	4.26407
6.41	4.3042
6.42	4.27986
6.43	4.31867
6.44	4.29729
6.45	4.30519
6.46	4.28841
6.47	4.3269
6.48	4.30815
6.49	4.31308
6.5	4.31177
6.51	4.25519
6.52	4.28644
6.53	4.27756
6.54	4.30486
6.55	4.29828
6.56	4.26407
6.57	4.29104
6.58	4.28677
6.59	4.2588
6.6	4.26045
6.61	4.26999
6.62	4.32196
6.63	4.24795
6.64	4.26045
6.65	4.27361
6.66	4.25519
6.67	4.28907
6.68	4.2519
6.69	4.28874
6.7	4.28084
6.71	4.29269
6.72	4.29302
6.73	4.25321
6.74	4.27361
6.75	4.24894
6.76	4.26802
6.77	4.25157
6.78	4.28578
6.79	4.28446
6.8	4.29203
6.81	4.31177
6.82	4.27756
6.83	4.29236
6.84	4.24861
6.85	4.29762
6.86	4.26769
6.87	4.26012
6.88	4.29795
6.89	4.2917
6.9	4.28052
6.91	4.27295
6.92	4.27098
6.93	4.27098
6.94	4.26736
6.95	4.2894
6.96	4.29466
6.97	4.29532
6.98	4.2917
6.99	4.24499
7	4.25913
7.01	4.2644
7.02	4.25782
7.03	4.29795
7.04	4.29335
7.05	4.23347
7.06	4.29335
7.07	4.26933
7.08	4.23841
7.09	4.22722
7.1	4.26867
7.11	4.2542
7.12	4.23644
7.13	4.294
7.14	4.26078
7.15	4.29236
7.16	4.25321
7.17	4.26111
7.18	4.27328
7.19	4.24466
7.2	4.2315
7.21	4.26538
7.22	4.24663
7.23	4.25288
7.24	4.2417
7.25	4.2588
7.26	4.27723
7.27	4.2269
7.28	4.25025
7.29	4.26407
7.3	4.23183
7.31	4.244
7.32	4.23973
7.33	4.24334
7.34	4.25223
7.35	4.22262
7.36	4.23479
7.37	4.24466
7.38	4.23709
7.39	4.23183
7.4	4.194
7.41	4.19828
7.42	4.20913
7.43	4.18972
7.44	4.26769
7.45	4.28742
7.46	4.2463
7.47	4.2269
7.48	4.22328
7.49	4.23545
7.5	4.24104
7.51	4.22229
7.52	4.244
7.53	4.22426
7.54	4.23413
7.55	4.25486
7.56	4.20584
7.57	4.24236
7.58	4.25124
7.59	4.22591
7.6	4.21933
7.61	4.23413
7.62	4.24959
7.63	4.25584
7.64	4.22624
7.65	4.24861
7.66	4.22065
7.67	4.21176
7.68	4.20913
7.69	4.21111
7.7	4.20288
7.71	4.2144
7.72	4.24071
7.73	4.20387
7.74	4.21111
7.75	4.23216
7.76	4.21209
7.77	4.18808
7.78	4.23808
7.79	4.24071
7.8	4.22097
7.81	4.24696
7.82	4.24301
7.83	4.27525
7.84	4.2542
7.85	4.21768
7.86	4.1838
7.87	4.22558
7.88	4.25683
7.89	4.26275
7.9	4.22262
7.91	4.24696
7.92	4.21801
7.93	4.21143
7.94	4.21999
7.95	4.21933
7.96	4.19071
7.97	4.18314
7.98	4.21472
7.99	4.20091
8	4.19499
8.01	4.18051
8.02	4.20815
8.03	4.20058
8.04	4.18808
8.05	4.20584
8.06	4.24203
8.07	4.26473
8.08	4.19532
8.09	4.21407
8.1	4.23907
8.11	4.19795
8.12	4.19861
8.13	4.21834
8.14	4.21604
8.15	4.22295
8.16	4.20913
8.17	4.25716
8.18	4.19696
8.19	4.2167
8.2	4.19893
8.21	4.23446
8.22	4.24598
8.23	4.21867
8.24	4.20486
8.25	4.21999
8.26	4.19564
8.27	4.19828
8.28	4.17755
8.29	4.20058
8.3	4.21242
8.31	4.20518
8.32	4.18446
8.33	4.1963
8.34	4.23742
8.35	4.19433
8.36	4.19729
8.37	4.19433
8.38	4.20913
8.39	4.20518
8.4	4.20321
8.41	4.22525
8.42	4.21801
8.43	4.21242
8.44	4.22426
8.45	4.20387
8.46	4.17328
8.47	4.17689
8.48	4.1963
8.49	4.17722
8.5	4.19334
8.51	4.17689
8.52	4.19499
8.53	4.19499
8.54	4.19762
8.55	4.16308
8.56	4.19466
8.57	4.23249
8.58	4.20584
8.59	4.18775
8.6	4.18018
8.61	4.17887
8.62	4.17492
8.63	4.23019
8.64	4.23446
8.65	4.2065
8.66	4.16703
8.67	4.18545
8.68	4.18972
8.69	4.19433
8.7	4.21176
8.71	4.2463
8.72	4.22394
8.73	4.22624
8.74	4.23841
8.75	4.19959
8.76	4.16571
8.77	4.21275
8.78	4.20058
8.79	4.21209
8.8	4.1667
8.81	4.18676
8.82	4.19729
8.83	4.15452
8.84	4.20551
8.85	4.16143
8.86	4.19367
8.87	4.18578
8.88	4.1838
8.89	4.2144
8.9	4.23183
8.91	4.20354
8.92	4.16143
8.93	4.17624
8.94	4.17953
8.95	4.20288
8.96	4.18051
8.97	4.18939
8.98	4.18939
8.99	4.20518
9	4.17393
9.01	4.16242
9.02	4.19334
9.03	4.1963
9.04	4.17229
9.05	4.17755
9.06	4.16209
9.07	4.13643
9.08	4.1917
9.09	4.18347
9.1	4.19893
9.11	4.18841
9.12	4.17722
9.13	4.17624
9.14	4.17985
9.15	4.17393
9.16	4.19828
9.17	4.21012
9.18	4.20749
9.19	4.17624
9.2	4.16439
9.21	4.17426
9.22	4.16505
9.23	4.16472
9.24	4.18314
9.25	4.20946
9.26	4.19236
9.27	4.17755
9.28	4.14235
9.29	4.14663
9.3	4.15485
9.31	4.17722
9.32	4.18413
9.33	4.18051
9.34	4.1667
9.35	4.21933
9.36	4.17295
9.37	4.18709
9.38	4.18051
9.39	4.17591
9.4	4.14005
9.41	4.16735
9.42	4.12887
9.43	4.15913
9.44	4.16505
9.45	4.12623
9.46	4.15781
9.47	4.20387
9.48	4.1917
9.49	4.18314
9.5	4.14367
9.51	4.17328
9.52	4.16406
9.53	4.20551
9.54	4.17525
9.55	4.18216
9.56	4.14433
9.57	4.15584
9.58	4.18446
9.59	4.17031
9.6	4.18051
9.61	4.169
9.62	4.15124
9.63	4.16505
9.64	4.1588
9.65	4.17525
9.66	4.19104
9.67	4.16308
9.68	4.18314
9.69	4.19795
9.7	4.20847
9.71	4.16374
9.72	4.15683
9.73	4.20486
9.74	4.13906
9.75	4.14992
9.76	4.19071
9.77	4.17262
9.78	4.15749
9.79	4.21801
9.8	4.19795
9.81	4.1565
9.82	4.17196
9.83	4.17295
9.84	4.15387
9.85	4.1213
9.86	4.13216
9.87	4.13676
9.88	4.11505
9.89	4.12426
9.9	4.15584
9.91	4.15584
9.92	4.1542
9.93	4.15156
9.94	4.1463
9.95	4.14992
9.96	4.13281
9.97	4.1315
9.98	4.15749
9.99	4.14367
10	4.12854
10.01	4.14729
10.02	4.16505
10.03	4.12985
10.04	4.17097
10.05	4.15222
10.06	4.13545
10.07	4.17426
10.08	4.17953
10.09	4.11044
10.1	4.14564
10.11	4.15518
10.12	4.1542
10.13	4.17624
10.14	4.13545
10.15	4.16933
10.16	4.16209
10.17	4.17229
10.18	4.16078
10.19	4.16768
10.2	4.13281
10.21	4.13742
10.22	4.15683
10.23	4.13314
10.24	4.21045
10.25	4.17031
10.26	4.13742
10.27	4.11702
10.28	4.09038
10.29	4.13577
10.3	4.13413
10.31	4.13216
10.32	4.14762
10.33	4.13841
10.34	4.12854
10.35	4.12492
10.36	4.11505
10.37	4.12689
10.38	4.10814
10.39	4.14959
10.4	4.13643
10.41	4.12656
10.42	4.119
10.43	4.14729
10.44	4.15124
10.45	4.15814
10.46	4.13808
10.47	4.12459
10.48	4.14104
10.49	4.11341
10.5	4.16933
10.51	4.169
10.52	4.17064
10.53	4.14433
10.54	4.09038
10.55	4.12689
10.56	4.15354
10.57	4.1417
10.58	4.119
10.59	4.10387
10.6	4.13676
10.61	4.15946
10.62	4.12558
10.63	4.11637
10.64	4.13709
10.65	4.13545
10.66	4.1292
10.67	4.12196
10.68	4.10716
10.69	4.17229
10.7	4.12525
10.71	4.13314
10.72	4.14005
10.73	4.1713
10.74	4.15781
10.75	4.15617
10.76	4.18084
10.77	4.1838
10.78	4.16834
10.79	4.13545
10.8	4.12656
10.81	4.15716
10.82	4.1565
10.83	4.13512
10.84	4.12952
10.85	4.13841
10.86	4.11012
10.87	4.09498
10.88	4.12985
10.89	4.1611
10.9	4.11702
10.91	4.16505
10.92	4.13117
10.93	4.16012
10.94	4.15814
10.95	4.14235
10.96	4.09926
10.97	4.11044
10.98	4.12689
10.99	4.11801
11	4.13545
11.01	4.15814
11.02	4.12722
11.03	4.1111
11.04	4.13939
11.05	4.12327
11.06	4.15058
11.07	4.13939
11.08	4.14071
11.09	4.09202
11.1	4.11966
11.11	4.08939
11.12	4.12689
11.13	4.12985
11.14	4.10419
11.15	4.11176
11.16	4.0986
11.17	4.13281
11.18	4.13906
11.19	4.13216
11.2	4.07196
11.21	4.09268
11.22	4.11702
11.23	4.09959
11.24	4.13183
11.25	4.10452
11.26	4.12722
11.27	4.10354
11.28	4.094
11.29	4.11077
11.3	4.12821
11.31	4.14466
11.32	4.12229
11.33	4.10452
11.34	4.15058
11.35	4.12623
11.36	4.10452
11.37	4.1236
11.38	4.06242
11.39	4.09729
11.4	4.13479
11.41	4.12262
11.42	4.12163
11.43	4.09038
11.44	4.11143
11.45	4.10584
11.46	4.08051
11.47	4.12689
11.48	4.1236
11.49	4.10847
11.5	4.10419
11.51	4.09169
11.52	4.15025
11.53	4.0815
11.54	4.11669
11.55	4.11669
11.56	4.14959
11.57	4.11966
11.58	4.09597
11.59	4.11012
11.6	4.119
11.61	4.1065
11.62	4.11077
11.63	4.12952
11.64	4.11998
11.65	4.10025
11.66	4.08215
11.67	4.08906
11.68	4.10617
11.69	4.10485
11.7	4.14071
11.71	4.09762
11.72	4.15485
11.73	4.12755
11.74	4.08709
11.75	4.10419
11.76	4.13479
11.77	4.1111
11.78	4.10222
11.79	4.11867
11.8	4.10584
11.81	4.14663
11.82	4.08084
11.83	4.07097
11.84	4.119
11.85	4.09564
11.86	4.13545
11.87	4.09663
11.88	4.07689
11.89	4.09202
11.9	4.069
11.91	4.08544
11.92	4.08413
11.93	4.12459
11.94	4.10584
11.95	4.05946
11.96	4.1009
11.97	4.0815
11.98	4.11735
11.99	4.10058
12	4.12952
12.01	4.09465
12.02	4.11966
12.03	4.12393
12.04	4.10354
12.05	4.09137
12.06	4.09827
12.07	4.10584
12.08	4.14827
12.09	4.09137
12.1	4.08479
12.11	4.09564
12.12	4.05518
12.13	4.10058
12.14	4.08775
12.15	4.10847
12.16	4.069
12.17	4.06669
12.18	4.09038
12.19	4.10255
12.2	4.09597
12.21	4.11308
12.22	4.07952
12.23	4.09104
12.24	4.11472
12.25	4.11867
12.26	4.10781
12.27	4.12064
12.28	4.06998
12.29	4.10058
12.3	4.12623
12.31	4.09498
12.32	4.07492
12.33	4.08906
12.34	4.11341
12.35	4.14334
12.36	4.11406
12.37	4.11604
12.38	4.12262
12.39	4.08544
12.4	4.06209
12.41	4.11604
12.42	4.0611
12.43	4.03314
12.44	4.05748
12.45	4.08906
12.46	4.10518
12.47	4.09005
12.48	4.10584
12.49	4.05847
12.5	4.06867
12.51	4.12327
12.52	4.10025
12.53	4.09169
12.54	4.09433
12.55	4.10683
12.56	4.08972
12.57	4.08215
12.58	4.07689
12.59	4.05946
12.6	4.08676
12.61	4.09038
12.62	4.0838
12.63	4.07788
12.64	4.044
12.65	4.07985
12.66	4.07656
12.67	4.09564
12.68	4.11637
12.69	4.11702
12.7	4.08084
12.71	4.07558
12.72	4.05321
12.73	4.06439
12.74	4.08873
12.75	4.0884
12.76	4.08643
12.77	4.09564
12.78	4.10387
12.79	4.10222
12.8	4.1111
12.81	4.11867
12.82	4.07919
12.83	4.12097
12.84	4.09959
12.85	4.094
12.86	4.10419
12.87	4.11735
12.88	4.07426
12.89	4.06965
12.9	4.06406
12.91	4.10321
12.92	4.06768
12.93	4.05814
12.94	4.06373
12.95	4.0759
12.96	4.0588
12.97	4.12459
12.98	4.11176
12.99	4.1088
13	4.07919
13.01	4.09268
13.02	4.08413
13.03	4.11275
13.04	4.09235
13.05	4.08117
13.06	4.07525
13.07	4.1009
13.08	4.04169
13.09	4.09564
13.1	4.05946
13.11	4.04728
13.12	4.09071
13.13	4.05781
13.14	4.06472
13.15	4.08281
13.16	4.08873
13.17	4.08709
13.18	4.07229
13.19	4.07788
13.2	4.07426
13.21	4.07886
13.22	4.06965
13.23	4.10255
13.24	4.08939
13.25	4.08347
13.26	4.11373
13.27	4.09202
13.28	4.0861
13.29	4.11242
13.3	4.09663
13.31	4.06702
13.32	4.06538
13.33	4.094
13.34	4.09301
13.35	4.05715
13.36	4.07623
13.37	4.06604
13.38	4.07064
13.39	4.06636
13.4	4.07919
13.41	4.09071
13.42	4.03544
13.43	4.08347
13.44	4.05222
13.45	4.09334
13.46	4.06735
13.47	4.04728
13.48	4.05222
13.49	4.09169
13.5	4.07294
13.51	4.09564
13.52	4.06275
13.53	4.06275
13.54	4.07031
13.55	4.07985
13.56	4.06472
13.57	4.04235
13.58	4.06472
13.59	4.0463
13.6	4.03742
13.61	4.10288
13.62	4.08906
13.63	4.1009
13.64	4.11571
13.65	4.11341
13.66	4.10419
13.67	4.08117
13.68	4.0838
13.69	4.09367
13.7	4.09564
13.71	4.04893
13.72	4.04301
13.73	4.08084
13.74	4.08183
13.75	4.06867
13.76	4.06538
13.77	4.04005
13.78	4.03051
13.79	4.06275
13.8	4.02788
13.81	4.05551
13.82	4.05715
13.83	4.04103
13.84	4.0713
13.85	4.07952
13.86	4.05255
13.87	4.04696
13.88	4.05946
13.89	4.03248
13.9	4.03577
13.91	4.0759
13.92	4.04367
13.93	4.03906
13.94	4.07985
13.95	4.10814
13.96	4.05946
13.97	4.05847
13.98	4.05452
13.99	4.09301
14	4.09531
14.01	4.05255
14.02	4.05584
14.03	4.02261
14.04	4.03446
14.05	4.06143
14.06	4.11637
14.07	4.06307
14.08	4.08018
14.09	4.08775
14.1	4.07755
14.11	4.03774
14.12	4.05255
14.13	4.04432
14.14	4.08577
14.15	4.08742
14.16	4.06604
14.17	4.05682
14.18	4.04432
14.19	4.04531
14.2	4.07854
14.21	4.13084
14.22	4.07919
14.23	4.02393
14.24	4.03117
14.25	4.06242
14.26	4.07261
14.27	4.0759
14.28	4.06439
14.29	4.03149
14.3	4.05682
14.31	4.08314
14.32	4.08281
14.33	4.07689
14.34	4.03248
14.35	4.07294
14.36	4.09959
14.37	4.06735
14.38	4.05946
14.39	4.04136
14.4	4.0713
14.41	4.0611
14.42	4.06176
14.43	4.1088
14.44	4.09992
14.45	4.08281
14.46	4.06209
14.47	4.05715
14.48	4.04597
14.49	4.05189
14.5	4.05913
14.51	4.07459
14.52	4.07821
14.53	4.12788
14.54	4.07196
14.55	4.05979
14.56	4.05913
14.57	4.10255
14.58	4.09498
14.59	4.05979
14.6	4.06077
14.61	4.05353
14.62	4.03347
14.63	4.04038
14.64	4.06176
14.65	4.08347
14.66	4.11077
14.67	4.06768
14.68	4.05156
14.69	4.08314
14.7	4.04794
14.71	4.04235
14.72	4.07393
14.73	4.05682
14.74	4.04334
14.75	4.03676
14.76	4.05682
14.77	4.04071
14.78	4.05584
14.79	4.06801
14.8	4.05913
14.81	4.10058
14.82	4.07558
14.83	4.06932
14.84	4.04959
14.85	4.00814
14.86	4.00978
14.87	4.08347
14.88	4.0963
14.89	4.07656
14.9	4.08215
14.91	4.03544
14.92	4.05123
14.93	4.06505
14.94	4.04235
14.95	4.03018
14.96	4.01242
14.97	4.05715
14.98	4.09071
14.99	4.11439
15	4.06209
15.01	4.02492
15.02	4.05255
15.03	4.0588
15.04	4.04465
15.05	4.02886
15.06	4.00485
15.07	4.0565
15.08	4.02195
15.09	4.03577
15.1	4.04005
15.11	4.03906
15.12	4.0157
15.13	4.04728
15.14	4.05321
15.15	4.08183
15.16	3.99959
15.17	4.03478
15.18	4.02853
15.19	4.02689
15.2	4.06604
15.21	4.04728
15.22	4.03215
15.23	4.05222
15.24	4.09038
15.25	4.09169
15.26	4.05189
15.27	4.04169
15.28	4.04794
15.29	4.0338
15.3	4.05946
15.31	4.05156
15.32	4.02656
15.33	4.04498
15.34	4.04465
15.35	4.07492
15.36	4.05485
15.37	4.05551
15.38	4.09597
15.39	4.05946
15.4	4.07163
15.41	4.04959
15.42	4.02327
15.43	4.01044
15.44	4.03018
15.45	4.05946
15.46	4.02031
15.47	4.04432
15.48	4.06373
15.49	4.01735
15.5	4.03709
15.51	4.03018
15.52	4.03709
15.53	4.04169
15.54	4.03117
15.55	4.01669
15.56	4.01472
15.57	4.069
15.58	4.04893
15.59	4.02557
15.6	4.0463
15.61	4.05189
15.62	4.02163
15.63	4.03774
15.64	4.02426
15.65	4.04498
15.66	4.06209
15.67	4.05913
15.68	4.02985
15.69	4.03149
15.7	4.02821
15.71	4.03182
15.72	4.03873
15.73	4.03084
15.74	4.03906
15.75	4.03676
15.76	4.05682
15.77	4.02985
15.78	4.044
15.79	4.0259
15.8	4.0134
15.81	4.04071
15.82	4.06373
15.83	4.06406
15.84	4.04926
15.85	4.01998
15.86	4.08479
15.87	4.03478
15.88	4.0361
15.89	4.00518
15.9	4.044
15.91	4.01274
15.92	4.02097
15.93	4.03051
15.94	4.05847
15.95	4.08215
15.96	4.06143
15.97	4.04268
15.98	4.07722
15.99	4.03709
16	4.02623
16.01	4.05748
16.02	4.06669
16.03	4.05123
16.04	4.04893
16.05	4.0463
16.06	4.00222
16.07	4.00847
16.08	4.0588
16.09	4.04334
16.1	3.99235
16.11	4.05025
16.12	4.07163
16.13	4.04268
16.14	4.04696
16.15	4.05321
16.16	4.06242
16.17	4.01899
16.18	4.05551
16.19	4.04465
16.2	4.0134
16.21	4.0088
16.22	4.05288
16.23	4.04959
16.24	4.07261
16.25	3.98478
16.26	4.00485
16.27	4.02327
16.28	4.04136
16.29	4.01505
16.3	4.044
16.31	4.00715
16.32	4.01636
16.33	4.06702
16.34	4.0565
16.35	4.07261
16.36	4.05025
16.37	4.04465
16.38	4.01932
16.39	4.00222
16.4	4.01998
16.41	4.02755
16.42	4.06801
16.43	4.02722
16.44	4.06702
16.45	4.05847
16.46	4.01505
16.47	4.04728
16.48	4.04005
16.49	4.04893
16.5	4.04005
16.51	4.02492
16.52	4.07426
16.53	4.05025
16.54	4.02195
16.55	4.03314
16.56	4.04893
16.57	4.03873
16.58	4.03873
16.59	4.00616
16.6	4.02656
16.61	4.05518
16.62	4.07689
16.63	4.06505
16.64	4.08117
16.65	4.03018
16.66	4.01439
16.67	4.0338
16.68	4.03413
16.69	4.05255
16.7	4.0236
16.71	4.0463
16.72	4.04893
16.73	4.01899
16.74	4.01801
16.75	3.98643
16.76	3.99399
16.77	4.00945
16.78	3.99991
16.79	4.01176
16.8	4.02985
16.81	3.99103
16.82	4.03807
16.83	3.99399
16.84	4.0259
16.85	4.07229
16.86	4.08775
16.87	4.07558
16.88	4.01472
16.89	4.0213
16.9	4.03149
16.91	4.04169
16.92	4.04169
16.93	4.03972
16.94	4.03281
16.95	4.06307
16.96	4.03215
16.97	4.00419
16.98	4.03643
16.99	3.99991
17	4.04334
17.01	4.01373
17.02	4.01274
17.03	4.06439
17.04	4.06702
17.05	4.04728
17.06	4.02853
17.07	4.01702
17.08	4.01307
17.09	4.04136
17.1	4.00551
17.11	4.03577
17.12	4.03544
17.13	4.00551
17.14	4.04202
17.15	4.0509
17.16	4.06801
17.17	4.00945
17.18	4.03939
17.19	4.03182
17.2	4.03149
17.21	4.00715
17.22	3.99959
17.23	3.98972
17.24	4.03676
17.25	4.04235
17.26	4.01768
17.27	4.03347
17.28	4.02492
17.29	4.03774
17.3	4.0384
17.31	4.00485
17.32	3.98347
17.33	4.04926
17.34	4.01242
17.35	3.9907
17.36	4.06439
17.37	4.00255
17.38	4.03281
17.39	4.02097
17.4	4.03544
17.41	4.00485
17.42	4.02492
17.43	4.03051
17.44	4.02492
17.45	4.02228
17.46	4.00945
17.47	3.99531
17.48	4.03248
17.49	4.03774
17.5	4.0338
17.51	4.04465
17.52	4.01011
17.53	3.99038
17.54	4.00945
17.55	4.03807
17.56	3.99991
17.57	4.00616
17.58	3.99136
17.59	4.04301
17.6	4.03248
17.61	4.04367
17.62	4.02031
17.63	4.04531
17.64	4.01472
17.65	3.99531
17.66	4.00913
17.67	4.04301
17.68	4.02492
17.69	4.03643
17.7	4.03511
17.71	4.0611
17.72	4.01669
17.73	4.01867
17.74	4.04465
17.75	3.99366
17.76	3.9736
17.77	4.01505
17.78	4.00551
17.79	4.02195
17.8	4.00288
17.81	4.04959
17.82	4.07229
17.83	4.01768
17.84	3.97459
17.85	3.98511
17.86	4.00386
17.87	4.0134
17.88	4.0157
17.89	4.0157
17.9	4.04564
17.91	4.02393
17.92	4.04103
17.93	4.02886
17.94	3.98445
17.95	4.00682
17.96	4.0032
17.97	4.04071
17.98	3.99827
17.99	4.00913
18	4.02064
18.01	4.0611
18.02	3.99432
18.03	3.98248
18.04	4.01965
18.05	4.03643
18.06	4.03544
18.07	4.01834
18.08	4.03051
18.09	4.0338
18.1	4.03314
18.11	4.0338
18.12	4.01636
18.13	3.98577
18.14	4.04301
18.15	4.04235
18.16	3.96965
18.17	3.99235
18.18	4.03182
18.19	3.99366
18.2	4.02557
18.21	4.04136
18.22	4.03248
18.23	4.02886
18.24	4.02195
18.25	4.03347
18.26	4.02459
18.27	4.00781
18.28	3.99893
18.29	4.01011
18.3	4.05189
18.31	4.01965
18.32	3.99827
18.33	4.01274
18.34	3.97228
18.35	3.99794
18.36	4.01899
18.37	3.96077
18.38	4.00682
18.39	4.04268
18.4	4.04432
18.41	4.04071
18.42	4.01472
18.43	3.98741
18.44	4.00847
18.45	4.03347
18.46	4.03018
18.47	4.0213
18.48	4.06636
18.49	4.02755
18.5	4.01603
18.51	4.00748
18.52	4.02327
18.53	3.99597
18.54	4.02623
18.55	4.01538
18.56	3.99334
18.57	4.01143
18.58	4.044
18.59	4.01209
18.6	4.03643
18.61	3.9963
18.62	4.00156
18.63	4.01603
18.64	4.01274
18.65	3.99498
18.66	4.01242
18.67	4.02952
18.68	4.01406
18.69	4.01274
18.7	4.0213
18.71	4.01373
18.72	4.01603
18.73	3.99761
18.74	4.02031
18.75	4.01899
18.76	3.99399
18.77	4.0009
18.78	4.00847
18.79	4.04005
18.8	4.00978
18.81	4.02097
18.82	4.00024
18.83	3.99959
18.84	4.03084
18.85	4.04827
18.86	4.02689
18.87	3.99005
18.88	3.99136
18.89	4.00584
18.9	3.95978
18.91	4.0009
18.92	4.02426
18.93	4.03117
18.94	4.01669
18.95	3.98873
18.96	3.99597
18.97	4.01209
18.98	4.00123
18.99	3.99663
19	3.98807
19.01	4.0236
19.02	4.02952
19.03	3.99531
19.04	4.02163
19.05	3.99531
19.06	4.0259
19.07	4.00814
19.08	4.00814
19.09	4.00452
19.1	4.00485
19.11	4.02755
19.12	4.04367
19.13	4.01603
19.14	3.97722
19.15	3.96932
19.16	3.98643
19.17	3.98906
19.18	4.03117
19.19	4.01834
19.2	4.03873
19.21	4.0009
19.22	3.98939
19.23	3.9782
19.24	3.97557
19.25	3.99827
19.26	4.00024
19.27	3.98215
19.28	3.99761
19.29	3.96537
19.3	3.98116
19.31	4.03215
19.32	4.0384
19.33	4.01998
19.34	3.99366
19.35	4.00748
19.36	3.98051
19.37	3.98116
19.38	4.03051
19.39	4.0213
19.4	4.03084
19.41	3.9782
19.42	4.01603
19.43	4.02459
19.44	4.04827
19.45	4.02722
19.46	3.96965
19.47	3.99564
19.48	4.01998
19.49	4.00452
19.5	3.99991
19.51	4.00913
19.52	4.0111
19.53	4.02886
19.54	4.00551
19.55	3.97656
19.56	3.98412
19.57	4.01867
19.58	4.02195
19.59	4.04728
19.6	4.01274
19.61	4.02689
19.62	3.99991
19.63	4.01209
19.64	3.99761
19.65	3.99761
19.66	3.99432
19.67	4.02261
19.68	4.00682
19.69	3.99926
19.7	4.00584
19.71	3.97162
19.72	3.96406
19.73	4.01867
19.74	4.0111
19.75	3.99268
19.76	4.03478
19.77	4.00649
19.78	4.03807
19.79	4.01011
19.8	3.9759
19.81	3.99334
19.82	3.99136
19.83	4.00024
19.84	4.01834
19.85	4.0384
19.86	4.0338
19.87	4.01768
19.88	4.0134
19.89	4.01768
19.9	3.99005
19.91	3.98412
19.92	3.99465
19.93	3.98939
19.94	3.97426
19.95	4.01538
19.96	4.01274
19.97	4.01011
19.98	3.9838
19.99	3.98807
20	3.9963
20.01	3.9736
20.02	4.00913
20.03	4.02788
20.04	4.00419
20.05	4.02788
20.06	3.98215
20.07	3.9907
20.08	4.02919
20.09	4.03643
20.1	4.05386
20.11	4.00649
20.12	3.98972
20.13	4.01965
20.14	4.00452
20.15	4.0236
20.16	3.95978
20.17	3.94301
20.18	3.97195
20.19	3.99005
20.2	4.01867
20.21	3.96866
20.22	4.01472
20.23	4.00288
20.24	3.98807
20.25	3.94169
20.26	4.00781
20.27	3.99695
20.28	3.98445
20.29	3.9884
20.3	3.98248
20.31	4.03347
20.32	4.00024
20.33	4.00189
20.34	3.98939
20.35	4.00222
20.36	4.01044
20.37	4.01505
20.38	3.98972
20.39	3.96965
20.4	3.94202
20.41	3.94531
20.42	3.98906
20.43	3.98478
20.44	3.9986
20.45	4.04038
20.46	4.02656
20.47	4.01505
20.48	3.98939
20.49	4.02886
20.5	4.00123
20.51	3.99136
20.52	3.9963
20.53	4.0032
20.54	3.96439
20.55	3.98182
20.56	4.00255
20.57	4.02689
20.58	4.01669
20.59	4.03873
20.6	4.01768
20.61	3.98018
20.62	4.03906
20.63	4.03511
20.64	3.98906
20.65	4.02557
20.66	4.02064
20.67	3.99465
20.68	4.0213
20.69	4.02788
20.7	3.99564
20.71	3.99827
20.72	4.0111
20.73	3.99531
20.74	3.98906
20.75	4.00189
20.76	3.96603
20.77	4.05321
20.78	3.9986
20.79	3.9884
20.8	4.05255
20.81	3.99531
20.82	3.97985
20.83	3.98281
20.84	3.98412
20.85	4.00847
20.86	4.02722
20.87	3.99531
20.88	4.00123
20.89	4.00255
20.9	3.99103
20.91	3.98577
20.92	4.02064
20.93	3.99399
20.94	3.98084
20.95	3.99038
20.96	3.9611
20.97	3.9861
20.98	3.97294
20.99	3.96866
21	3.95222
21.01	3.9736
21.02	4.00748
21.03	4.00222
21.04	4.00781
21.05	4.00386
21.06	4.00616
21.07	4.02689
21.08	4.00386
21.09	4.05419
21.1	4.02097
21.11	4.02195
21.12	4.0463
21.13	4.00847
21.14	3.9907
21.15	3.99761
21.16	3.97294
21.17	4.00748
21.18	3.99235
21.19	3.96472
21.2	3.99202
21.21	4.01242
21.22	4.00255
21.23	3.98676
21.24	3.99432
21.25	4.00814
21.26	3.97195
21.27	4.01176
21.28	4.00123
21.29	4.01899
21.3	4.0134
21.31	3.99893
21.32	4.00748
21.33	3.96768
21.34	3.98676
21.35	3.95518
21.36	3.97623
21.37	4.00945
21.38	4.01735
21.39	3.98709
21.4	3.98906
21.41	4.00386
21.42	4.01538
21.43	4.01735
21.44	3.9838
21.45	4.04136
21.46	4.02919
21.47	3.99531
21.48	4.01702
21.49	3.9861
21.5	3.9907
21.51	4.00649
21.52	4.03215
21.53	3.98741
21.54	3.99169
21.55	3.98544
21.56	4.04564
21.57	4.03742
21.58	4.01143
21.59	3.97919
21.6	4.00419
21.61	3.98445
21.62	4.02327
21.63	4.03314
21.64	4.01011
21.65	4.0213
21.66	4.0032
21.67	3.96603
21.68	3.98215
21.69	4.00913
21.7	3.96833
21.71	4.00584
21.72	4.01307
21.73	3.97853
21.74	4.00682
21.75	3.98676
21.76	3.97952
21.77	3.9907
21.78	4.00452
21.79	4.01209
21.8	4.00518
21.81	3.9986
21.82	3.98873
21.83	4.01801
21.84	3.99038
21.85	3.98741
21.86	3.96044
21.87	3.9111
21.88	3.97755
21.89	3.98347
21.9	3.99465
21.91	3.95353
21.92	3.98544
21.93	3.98116
21.94	3.97656
21.95	4.00386
21.96	3.98412
21.97	3.96702
21.98	3.97787
21.99	3.96537
22	3.99005
22.01	3.97656
22.02	3.96702
22.03	3.96603
22.04	4.00814
22.05	3.9884
22.06	4.02327
22.07	4.00255
22.08	3.98676
22.09	4.00748
22.1	4.00847
22.11	4.02524
22.12	3.98807
22.13	3.97623
22.14	4.00945
22.15	3.96932
22.16	3.98248
22.17	3.97886
22.18	3.97952
22.19	4.02557
22.2	3.95156
22.21	3.95814
22.22	4.00288
22.23	4.02097
22.24	4.00024
22.25	3.99991
22.26	3.98906
22.27	4.04071
22.28	4.02031
22.29	4.00255
22.3	3.99366
22.31	3.98051
22.32	4.00189
22.33	3.99959
22.34	3.9963
22.35	3.99103
22.36	3.96505
22.37	3.9838
22.38	3.97426
22.39	3.98741
22.4	4.02031
22.41	4.02163
22.42	4.00419
22.43	4.00682
22.44	3.97787
22.45	3.97195
22.46	3.97853
22.47	3.96406
22.48	3.98511
22.49	3.99136
22.5	4.00715
22.51	3.98051
22.52	4.01603
22.53	4.00024
22.54	4.02163
22.55	3.98511
22.56	4.03807
22.57	4.00649
22.58	4.0463
22.59	4.01505
22.6	4.00781
22.61	4.00978
22.62	3.9907
22.63	3.97393
22.64	3.97656
22.65	3.97228
22.66	3.95583
22.67	3.97557
22.68	3.99926
22.69	3.98873
22.7	4.00222
22.71	4.01538
22.72	4.03182
22.73	4.04893
22.74	3.9986
22.75	3.9782
22.76	3.99268
22.77	4.00518
22.78	4.03478
22.79	4.0213
22.8	4.01899
22.81	4.01636
22.82	3.99038
22.83	3.98412
22.84	4.00057
22.85	3.97853
22.86	3.97919
22.87	3.98774
22.88	3.97919
22.89	3.93116
22.9	3.96044
22.91	3.97097
22.92	4.0157
22.93	3.99794
22.94	3.95551
22.95	3.99432
22.96	3.9782
22.97	3.96044
22.98	3.98741
22.99	4.00255
23	3.98281
23.01	4.00616
23.02	3.98347
23.03	3.9634
23.04	3.99268
23.05	3.99893
23.06	3.99498
23.07	3.97886
23.08	3.97919
23.09	4.00156
23.1	4.00156
23.11	3.99136
23.12	3.99432
23.13	3.99235
23.14	4.01867
23.15	3.99597
23.16	3.99169
23.17	3.96472
23.18	3.97524
23.19	3.94531
23.2	4.00781
23.21	4.02524
23.22	4.00485
23.23	3.98972
23.24	4.00452
23.25	3.99564
23.26	3.97393
23.27	3.99827
23.28	3.99432
23.29	3.97919
23.3	3.97623
23.31	3.97557
23.32	3.97557
23.33	3.98807
23.34	3.9838
23.35	3.96176
23.36	3.97031
23.37	3.9634
23.38	4.01077
23.39	3.98018
23.4	4.00978
23.41	4.02031
23.42	3.99827
23.43	3.99235
23.44	3.98544
23.45	3.98774
23.46	3.97919
23.47	3.97162
23.48	3.98807
23.49	4.02492
23.5	3.96176
23.51	3.98709
23.52	3.98215
23.53	3.97491
23.54	3.97426
23.55	3.97327
23.56	3.96143
23.57	4.0009
23.58	4.02689
23.59	3.99103
23.6	3.99564
23.61	3.97031
23.62	4.00353
23.63	3.99169
23.64	3.98939
23.65	3.97195
23.66	3.98084
23.67	3.99926
23.68	3.98774
23.69	3.99531
23.7	3.9838
23.71	3.9838
23.72	3.99169
23.73	3.98643
23.74	3.98182
23.75	3.98741
23.76	3.96899
23.77	4.02064
23.78	3.9963
23.79	3.9657
23.8	4.00485
23.81	3.99564
23.82	4.00551
23.83	3.97426
23.84	4.00419
23.85	4.00057
23.86	3.99926
23.87	3.97787
23.88	3.97393
23.89	3.99564
23.9	3.96998
23.91	3.97656
23.92	3.98939
23.93	3.99991
23.94	3.99695
23.95	3.95847
23.96	3.95057
23.97	3.99597
23.98	3.97755
23.99	3.95353
24	3.96702
24.01	3.97162
24.02	4.00123
24.03	3.99366
24.04	4.00057
24.05	4.00978
24.06	4.00255
24.07	3.96801
24.08	3.96833
24.09	4.02195
24.1	4.0157
24.11	3.97755
24.12	4.01373
24.13	4.01538
24.14	4.02492
24.15	3.99959
24.16	3.97031
24.17	3.96537
24.18	3.98051
24.19	3.99761
24.2	3.99597
24.21	4.02952
24.22	3.99235
24.23	3.94991
24.24	3.95419
24.25	3.99235
24.26	3.98906
24.27	3.99465
24.28	3.94728
24.29	3.97886
24.3	3.98906
24.31	3.96965
24.32	3.97919
24.33	4.00255
24.34	3.97557
24.35	3.97623
24.36	3.99202
24.37	3.96208
24.38	3.9486
24.39	3.97656
24.4	4.01702
24.41	3.99531
24.42	3.99794
24.43	3.99465
24.44	3.97722
24.45	3.97623
24.46	3.98215
24.47	3.97393
24.48	3.9588
24.49	3.94136
24.5	3.98478
24.51	3.94926
24.52	3.97327
24.53	3.98741
24.54	3.95748
24.55	3.99991
24.56	3.98577
24.57	3.96735
24.58	3.98709
24.59	3.98347
24.6	3.98116
24.61	3.99301
24.62	4.00386
24.63	3.97853
24.64	3.96801
24.65	3.94169
24.66	3.9532
24.67	3.97162
24.68	3.96011
24.69	3.97985
24.7	3.95222
24.71	3.98182
24.72	4.01505
24.73	3.97491
24.74	4.0009
24.75	3.97524
24.76	3.97787
24.77	3.97853
24.78	3.97393
24.79	3.97031
24.8	3.98741
24.81	3.99399
24.82	3.96866
24.83	4.02821
24.84	3.99695
24.85	3.9588
24.86	3.94465
24.87	3.97524
24.88	3.97228
24.89	4.00057
24.9	3.98577
24.91	3.99301
24.92	3.9634
24.93	3.96735
24.94	3.99465
24.95	3.99235
24.96	3.96505
24.97	3.95616
24.98	3.96176
24.99	3.96077
25	3.99959
25.01	3.97886
25.02	3.96307
25.03	3.97064
25.04	3.99235
25.05	4.00255
25.06	3.97491
25.07	3.98478
25.08	3.95419
25.09	4.00551
25.1	3.97195
25.11	3.95057
25.12	3.99893
25.13	3.9611
25.14	4.0157
25.15	3.97656
25.16	4.00715
25.17	3.98084
25.18	3.98807
25.19	4.02031
25.2	3.96011
25.21	3.97787
25.22	3.98676
25.23	3.9782
25.24	3.98577
25.25	3.99893
25.26	3.96176
25.27	3.97426
25.28	3.99794
25.29	3.98347
25.3	3.94991
25.31	3.94958
25.32	3.96801
25.33	3.97722
25.34	3.96965
25.35	3.95189
25.36	3.99531
25.37	3.97919
25.38	3.99794
25.39	3.97557
25.4	3.96636
25.41	3.92886
25.42	3.97919
25.43	3.9963
25.44	3.98445
25.45	3.99366
25.46	3.97031
25.47	3.99268
25.48	3.98347
25.49	3.98741
25.5	3.96801
25.51	3.92195
25.52	3.96899
25.53	3.96472
25.54	3.99959
25.55	3.99268
25.56	4.01538
25.57	3.9884
25.58	3.96768
25.59	3.9634
25.6	3.99531
25.61	3.9407
25.62	3.9759
25.63	4.01899
25.64	3.97656
25.65	3.94827
25.66	3.96077
25.67	4.00748
25.68	4.01538
25.69	3.99169
25.7	3.96965
25.71	3.98347
25.72	3.98873
25.73	3.94597
25.74	3.99597
25.75	3.96274
25.76	3.99334
25.77	3.95551
25.78	3.96143
25.79	3.99794
25.8	3.97261
25.81	3.96011
25.82	3.99169
25.83	4.00649
25.84	4.00748
25.85	3.98478
25.86	3.95452
25.87	3.98445
25.88	3.96965
25.89	3.99169
25.9	3.99465
25.91	3.9736
25.92	3.96143
25.93	3.98676
25.94	3.99399
25.95	3.99366
25.96	3.98314
25.97	3.98643
25.98	3.96702
25.99	3.93774
26	3.95715
26.01	3.97985
26.02	3.99991
26.03	3.94662
26.04	3.95814
26.05	3.98873
26.06	3.98741
26.07	3.99169
26.08	4.00748
26.09	3.95748
26.1	3.97261
26.11	4.00649
26.12	3.99136
26.13	3.98972
26.14	3.98149
26.15	3.95649
26.16	3.97491
26.17	3.99399
26.18	3.97195
26.19	3.94432
26.2	3.97722
26.21	3.96011
26.22	3.97097
26.23	3.95945
26.24	3.9657
26.25	4.01143
26.26	3.97985
26.27	3.97787
26.28	3.95419
26.29	4.00353
26.3	3.99827
26.31	3.99465
26.32	4.01965
26.33	3.96735
26.34	3.97722
26.35	4.01801
26.36	3.98643
26.37	3.96274
26.38	4.02097
26.39	3.99005
26.4	3.99794
26.41	3.98577
26.42	3.9282
26.43	3.9713
26.44	3.95287
26.45	3.96439
26.46	3.97755
26.47	3.95353
26.48	3.97623
26.49	4.00452
26.5	3.95222
26.51	3.98018
26.52	3.96439
26.53	3.96505
26.54	3.98643
26.55	3.95254
26.56	3.98511
26.57	3.9713
26.58	3.96603
26.59	3.95682
26.6	3.98314
26.61	3.97853
26.62	3.97195
26.63	4.0338
26.64	4.01044
26.65	4.01472
26.66	3.97162
26.67	3.94498
26.68	3.96702
26.69	4.0032
26.7	3.96833
26.71	3.94498
26.72	3.99663
26.73	4.01044
26.74	3.9884
26.75	4.00057
26.76	3.98149
26.77	3.93643
26.78	3.92952
26.79	4.02853
26.8	3.99268
26.81	3.95353
26.82	3.95616
26.83	3.9782
26.84	4.01636
26.85	4.0009
26.86	3.97097
26.87	4.01439
26.88	4.01011
26.89	3.94498
26.9	3.99827
26.91	3.9759
26.92	3.92722
26.93	3.95189
26.94	3.96965
26.95	3.99301
26.96	3.99202
26.97	3.9986
26.98	3.97689
26.99	3.9532
27	3.97722
27.01	3.9861
27.02	3.9963
27.03	3.95715
27.04	3.93182
27.05	3.93807
27.06	3.93314
27.07	3.9782
27.08	3.96011
27.09	4.00123
27.1	4.01636
27.11	4.02393
27.12	4.01274
27.13	3.9963
27.14	3.96505
27.15	3.9713
27.16	4.00024
27.17	3.95748
27.18	3.94465
27.19	3.98347
27.2	4.00189
27.21	3.97985
27.22	3.98281
27.23	3.97327
27.24	3.94564
27.25	3.98149
27.26	3.97623
27.27	3.97919
27.28	3.9657
27.29	3.94827
27.3	3.95682
27.31	3.98314
27.32	3.95024
27.33	3.99827
27.34	3.97459
27.35	3.96307
27.36	3.96965
27.37	3.99005
27.38	3.97524
27.39	3.97623
27.4	3.97886
27.41	3.97162
27.42	3.96702
27.43	3.99005
27.44	4.01669
27.45	3.94662
27.46	3.95551
27.47	3.99597
27.48	3.98281
27.49	3.95781
27.5	3.97491
27.51	3.97722
27.52	3.99597
27.53	3.99301
27.54	3.99959
27.55	4.00419
27.56	3.99959
27.57	3.99531
27.58	3.95945
27.59	3.94366
27.6	3.96801
27.61	3.97097
27.62	3.97919
27.63	3.98051
27.64	3.99827
27.65	3.93708
27.66	3.94136
27.67	3.95189
27.68	4.01899
27.69	4.00616
27.7	3.98149
27.71	3.95978
27.72	3.94333
27.73	3.9759
27.74	3.96603
27.75	3.97195
27.76	3.98412
27.77	3.95978
27.78	3.95518
27.79	3.98774
27.8	3.95222
27.81	3.94827
27.82	3.94465
27.83	3.93412
27.84	3.97426
27.85	4.02492
27.86	3.9861
27.87	3.99991
27.88	3.98939
27.89	4.00057
27.9	4.0009
27.91	4.00452
27.92	4.00386
27.93	3.98314
27.94	3.97195
27.95	3.99991
27.96	3.98314
27.97	3.97952
27.98	3.97656
27.99	3.92689
28	3.98051
28.01	3.96833
28.02	3.9305
28.03	3.97261
28.04	3.97294
28.05	3.95781
28.06	3.94991
28.07	3.97031
28.08	3.99136
28.09	3.97327
28.1	3.95978
28.11	3.9782
28.12	3.96801
28.13	3.96735
28.14	3.95551
28.15	3.95287
28.16	3.96537
28.17	3.9486
28.18	3.94235
28.19	4.00649
28.2	3.99235
28.21	3.93643
28.22	3.9588
28.23	3.99827
28.24	3.95518
28.25	3.97459
28.26	3.94761
28.27	3.94136
28.28	3.97031
28.29	3.96965
28.3	3.95287
28.31	3.94531
28.32	4.0032
28.33	3.99202
28.34	3.96833
28.35	3.97261
28.36	3.98709
28.37	3.95123
28.38	3.96998
28.39	3.99761
28.4	3.98873
28.41	3.99597
28.42	3.97623
28.43	3.98709
28.44	3.98347
28.45	3.97064
28.46	3.96472
28.47	3.98478
28.48	3.96505
28.49	3.98445
28.5	3.99366
28.51	3.97886
28.52	3.9259
28.53	3.98807
28.54	3.98741
28.55	3.96702
28.56	3.95353
28.57	3.98412
28.58	3.9736
28.59	3.97064
28.6	3.97162
28.61	3.9963
28.62	3.96833
28.63	3.93939
28.64	3.95715
28.65	4.01965
28.66	3.96307
28.67	3.95419
28.68	3.91866
28.69	4.00255
28.7	3.96373
28.71	3.95419
28.72	3.99366
28.73	3.99235
28.74	3.92064
28.75	3.95353
28.76	3.97261
28.77	3.96866
28.78	3.96636
28.79	3.96833
28.8	3.92491
28.81	3.96603
28.82	3.96472
28.83	3.95945
28.84	3.97722
28.85	4.00781
28.86	3.95814
28.87	3.97787
28.88	3.95024
28.89	3.9486
28.9	3.94202
28.91	3.93116
28.92	3.98873
28.93	3.97097
28.94	3.9759
28.95	3.96768
28.96	3.94103
28.97	3.95649
28.98	3.97294
28.99	3.98478
29	3.94761
29.01	3.97557
29.02	3.9588
29.03	3.97261
29.04	3.97755
29.05	3.97755
29.06	3.99334
29.07	3.98248
29.08	3.97656
29.09	3.99465
29.1	4.01636
29.11	3.96472
29.12	3.95189
29.13	3.97426
29.14	3.98051
29.15	3.98018
29.16	3.9759
29.17	4.00024
29.18	3.96669
29.19	3.98643
29.2	3.9759
29.21	3.98116
29.22	3.93906
29.23	3.97853
29.24	3.99399
29.25	3.96143
29.26	3.97294
29.27	4.00781
29.28	4.02821
29.29	4.00452
29.3	4.02195
29.31	3.97689
29.32	3.9588
29.33	3.9838
29.34	3.94333
29.35	3.9884
29.36	3.97228
29.37	3.9588
29.38	3.98051
29.39	4.01932
29.4	4.00847
29.41	3.96143
29.42	3.96603
29.43	3.99334
29.44	3.9861
29.45	3.93511
29.46	3.92985
29.47	3.92952
29.48	3.9657
29.49	3.97755
29.5	3.97722
29.51	4.01439
29.52	4.00288
29.53	3.99728
29.54	3.93511
29.55	3.95287
29.56	3.9532
29.57	3.99005
29.58	3.96307
29.59	4.00189
29.6	4.01899
29.61	3.99038
29.62	3.94169
29.63	3.99202
29.64	4.01439
29.65	3.97261
29.66	3.98709
29.67	3.97426
29.68	3.98577
29.69	3.96044
29.7	3.9384
29.71	3.95024
29.72	3.97886
29.73	4.00485
29.74	3.96866
29.75	3.89958
29.76	3.89399
29.77	3.92195
29.78	3.99334
29.79	3.97426
29.8	3.94268
29.81	3.93511
29.82	3.95978
29.83	3.96669
29.84	3.95945
29.85	3.96932
29.86	3.96176
29.87	3.9657
29.88	3.97689
29.89	3.96044
29.9	3.96208
29.91	3.99926
29.92	3.96768
29.93	3.96307
29.94	4.00978
29.95	3.96998
29.96	3.97491
29.97	3.96439
29.98	3.95123
29.99	3.99235
30	3.98084
30.01	3.97097
30.02	3.96735
30.03	3.96833
30.04	3.96208
30.05	3.98314
30.06	3.99301
30.07	3.9588
30.08	3.98873
30.09	3.99794
30.1	3.99301
30.11	3.96866
30.12	3.97557
30.13	3.98939
30.14	3.99399
30.15	3.96143
30.16	3.94958
30.17	3.94893
30.18	3.94926
30.19	3.95748
30.2	4.02261
30.21	4.02459
30.22	3.96702
30.23	3.95485
30.24	3.94465
30.25	3.96208
30.26	3.96176
30.27	3.96537
30.28	3.98248
30.29	3.94235
30.3	3.96636
30.31	3.95222
30.32	3.98906
30.33	3.99531
30.34	4.00814
30.35	3.96669
30.36	3.93248
30.37	3.91833
30.38	3.97689
30.39	3.94465
30.4	3.94004
30.41	3.96636
30.42	4.0134
30.43	3.98445
30.44	3.9759
30.45	3.97162
30.46	3.93412
30.47	3.94103
30.48	3.98774
30.49	4.01636
30.5	3.93478
30.51	3.9361
30.52	3.94926
30.53	3.95748
30.54	4.00189
30.55	3.98116
30.56	3.95715
30.57	3.96274
30.58	3.9588
30.59	3.9759
30.6	3.95551
30.61	3.99038
30.62	3.99663
30.63	3.96899
30.64	4.0009
30.65	3.96307
30.66	3.94202
30.67	3.96274
30.68	3.96373
30.69	3.95978
30.7	3.97557
30.71	3.97393
30.72	3.98215
30.73	3.92689
30.74	3.92393
30.75	3.96866
30.76	3.97787
30.77	3.9657
30.78	4.01176
30.79	3.95386
30.8	3.9713
30.81	3.9907
30.82	3.96307
30.83	3.95551
30.84	3.96669
30.85	3.96899
30.86	3.97886
30.87	3.97952
30.88	3.95156
30.89	3.9782
30.9	3.95419
30.91	3.93741
30.92	3.96241
30.93	3.9236
30.94	3.95287
30.95	3.97327
30.96	3.96537
30.97	3.97064
30.98	3.98544
30.99	3.96899
31	3.99959
31.01	3.95682
31.02	3.94761
31.03	3.96044
31.04	3.9509
31.05	3.94366
31.06	3.9486
31.07	3.93708
31.08	3.96406
31.09	3.94235
31.1	4.01373
31.11	3.99268
31.12	3.97623
31.13	3.93939
31.14	3.95847
31.15	3.9884
31.16	3.97787
31.17	3.96669
31.18	3.95189
31.19	3.95057
31.2	3.96439
31.21	3.9759
31.22	3.99366
31.23	3.99136
31.24	3.97689
31.25	3.97557
31.26	3.96603
31.27	3.93577
31.28	3.97722
31.29	3.96537
31.3	3.98248
31.31	3.98281
31.32	3.96998
31.33	3.9657
31.34	3.95682
31.35	3.93412
31.36	3.95912
31.37	3.96439
31.38	3.98084
31.39	3.95814
31.4	3.98248
31.41	3.95945
31.42	3.99432
31.43	3.9782
31.44	3.94465
31.45	3.98906
31.46	3.9657
31.47	3.9884
31.48	3.94991
31.49	3.95386
31.5	3.97853
31.51	3.98774
31.52	4.00452
31.53	3.98774
31.54	3.99005
31.55	3.97853
31.56	4.00419
31.57	3.9759
31.58	3.9611
31.59	3.94169
31.6	3.94794
31.61	3.98149
31.62	3.94827
31.63	3.94301
31.64	3.95781
31.65	3.96932
31.66	3.95254
31.67	3.93643
31.68	3.93347
31.69	3.9759
31.7	3.97195
31.71	3.97853
31.72	3.94498
31.73	3.94202
31.74	3.96439
31.75	3.95847
31.76	3.95485
31.77	3.95353
31.78	3.95682
31.79	3.9532
31.8	3.96044
31.81	3.97689
31.82	3.9588
31.83	3.96307
31.84	3.93281
31.85	3.93281
31.86	4.00419
31.87	3.98248
31.88	3.96406
31.89	3.97952
31.9	3.93939
31.91	3.98709
31.92	3.98774
31.93	3.94794
31.94	3.99169
31.95	3.95156
31.96	3.9759
31.97	3.95485
31.98	3.98511
31.99	3.96011
32	3.96077
32.01	3.98281
32.02	3.97064
32.03	3.98511
32.04	3.97491
32.05	3.95419
32.06	3.96208
32.07	3.94399
32.08	3.95485
32.09	3.99399
32.1	3.97557
32.11	3.93774
32.12	3.96735
32.13	3.96702
32.14	3.99366
32.15	3.98643
32.16	3.98511
32.17	3.97755
32.18	3.97426
32.19	3.97557
32.2	3.96833
32.21	3.97985
32.22	3.98412
32.23	3.9532
32.24	3.97656
32.25	3.96077
32.26	3.95452
32.27	3.94827
32.28	3.96537
32.29	3.97722
32.3	3.96373
32.31	3.96241
32.32	3.9611
32.33	3.97031
32.34	3.99136
32.35	3.95222
32.36	3.93873
32.37	3.97623
32.38	3.9861
32.39	3.95748
32.4	3.99103
32.41	3.9588
32.42	3.95222
32.43	3.9588
32.44	3.99531
32.45	3.96406
32.46	3.9486
32.47	3.98939
32.48	3.95748
32.49	3.93675
32.5	3.95222
32.51	3.97327
32.52	4.00189
32.53	3.98182
32.54	3.96208
32.55	3.95649
32.56	3.95287
32.57	3.98281
32.58	4.01472
32.59	3.99893
32.6	3.96077
32.61	3.97524
32.62	3.96011
32.63	3.97557
32.64	3.96833
32.65	3.97162
32.66	3.98544
32.67	3.95583
32.68	3.97097
32.69	3.99991
32.7	3.97656
32.71	3.95156
32.72	3.99301
32.73	3.94629
32.74	3.94926
32.75	3.90353
32.76	3.97755
32.77	3.96505
32.78	3.97952
32.79	3.98281
32.8	3.93906
32.81	3.95189
32.82	3.96439
32.83	3.97524
32.84	3.9838
32.85	3.96077
32.86	3.97327
32.87	3.96176
32.88	3.96176
32.89	3.9713
32.9	3.96307
32.91	3.99103
32.92	3.96603
32.93	3.97162
32.94	3.97491
32.95	3.9861
32.96	3.96636
32.97	3.94531
32.98	3.98116
32.99	3.98084
33	3.96965
33.01	3.97985
33.02	3.96735
33.03	3.93314
33.04	3.98412
33.05	3.9782
33.06	3.96965
33.07	3.96011
33.08	3.9532
33.09	3.95386
33.1	3.98084
33.11	3.97491
33.12	3.93412
33.13	3.93347
33.14	3.96176
33.15	3.99136
33.16	3.98018
33.17	3.96241
33.18	4.01274
33.19	3.97985
33.2	3.96143
33.21	3.98281
33.22	3.99761
33.23	3.99794
33.24	3.91899
33.25	3.9282
33.26	3.99794
33.27	3.96439
33.28	3.94301
33.29	3.95912
33.3	3.93774
33.31	3.94037
33.32	3.92557
33.33	3.9509
33.34	3.97327
33.35	3.94761
33.36	3.96932
33.37	3.96735
33.38	3.97097
33.39	3.96702
33.4	3.93511
33.41	3.99038
33.42	3.95254
33.43	3.94103
33.44	3.93379
33.45	3.94399
33.46	3.95616
33.47	3.96077
33.48	4.00649
33.49	3.96472
33.5	3.98182
33.51	3.95156
33.52	3.95123
33.53	3.98709
33.54	3.98544
33.55	3.98051
33.56	3.9907
33.57	3.98051
33.58	3.98281
33.59	3.96241
33.6	4.00847
33.61	3.9884
33.62	3.98741
33.63	3.9759
33.64	3.94695
33.65	3.95485
33.66	3.96274
33.67	3.96208
33.68	3.96406
33.69	3.99038
33.7	3.98774
33.71	3.96702
33.72	3.90978
33.73	3.95156
33.74	3.96307
33.75	3.97557
33.76	3.97228
33.77	3.96735
33.78	3.97656
33.79	3.9407
33.8	3.94728
33.81	4.00024
33.82	3.98051
33.83	3.96801
33.84	3.94465
33.85	3.9759
33.86	4.00584
33.87	4.01011
33.88	3.99334
33.89	3.99301
33.9	3.95485
33.91	3.96241
33.92	3.95781
33.93	3.97557
33.94	3.94268
33.95	3.98544
33.96	3.95912
33.97	3.91998
33.98	3.9611
33.99	3.94728
34	3.97327
34.01	3.94301
34.02	3.99465
34.03	3.94202
34.04	3.94169
34.05	3.99268
34.06	3.96505
34.07	3.95649
34.08	3.9509
34.09	3.96208
34.1	3.99005
34.11	3.95616
34.12	3.99761
34.13	3.98741
34.14	3.97064
34.15	3.95222
34.16	3.95814
34.17	3.95353
34.18	3.97952
34.19	3.99761
34.2	3.98643
34.21	3.9759
34.22	3.96274
34.23	3.95912
34.24	3.99399
34.25	3.98215
34.26	3.94926
34.27	3.95222
34.28	3.97064
34.29	3.97426
34.3	3.98215
34.31	3.95551
34.32	3.98018
34.33	3.96307
34.34	3.96702
34.35	3.97195
34.36	3.99597
34.37	3.96044
34.38	3.93248
34.39	3.98182
34.4	3.96472
34.41	3.9486
34.42	3.96307
34.43	3.9611
34.44	3.98709
34.45	3.95847
34.46	3.98412
34.47	3.96307
34.48	3.93873
34.49	3.99136
34.5	3.96603
34.51	3.98445
34.52	4.00682
34.53	3.96537
34.54	3.95156
34.55	3.96406
34.56	3.96505
34.57	3.98741
34.58	3.94926
34.59	3.99334
34.6	3.98577
34.61	3.93906
34.62	3.92656
34.63	3.96176
34.64	3.96044
34.65	3.94366
34.66	3.9657
34.67	3.92919
34.68	3.97524
34.69	3.96143
34.7	3.97755
34.71	3.96537
34.72	3.96472
34.73	3.99991
34.74	3.99959
34.75	3.93379
34.76	3.93906
34.77	3.94597
34.78	3.96669
34.79	3.99531
34.8	3.97524
34.81	3.9634
34.82	3.96373
34.83	3.96735
34.84	3.97656
34.85	3.95978
34.86	3.93379
34.87	3.99432
34.88	3.97656
34.89	3.97787
34.9	3.97261
34.91	3.97064
34.92	3.96899
34.93	3.98084
34.94	3.97557
34.95	3.99038
34.96	3.95156
34.97	3.96735
34.98	3.96373
34.99	3.96801
35	3.96011
35.01	3.9759
35.02	3.92853
35.03	3.96965
35.04	3.96537
35.05	3.97327
35.06	3.9713
35.07	3.93807
35.08	3.93643
35.09	3.95978
35.1	3.94761
35.11	3.96899
35.12	3.97722
35.13	3.94728
35.14	3.98149
35.15	3.97195
35.16	3.97327
35.17	3.95485
35.18	3.94366
35.19	3.96011
35.2	3.97787
35.21	3.93708
35.22	3.96702
35.23	3.95682
35.24	3.94301
35.25	3.94465
35.26	3.95123
35.27	3.93347
35.28	3.95912
35.29	3.97228
35.3	3.93741
35.31	3.95781
35.32	3.94202
35.33	3.95978
35.34	3.96603
35.35	3.91899
35.36	3.91899
35.37	3.95156
35.38	3.94827
35.39	3.94958
35.4	3.95978
35.41	3.98807
35.42	3.97031
35.43	3.97557
35.44	3.99268
35.45	3.97952
35.46	3.95781
35.47	3.97919
35.48	3.96702
35.49	3.95452
35.5	3.92623
35.51	3.96768
35.52	3.98182
35.53	3.9884
35.54	3.99498
35.55	3.95353
35.56	3.97393
35.57	3.94432
35.58	3.96636
35.59	3.94662
35.6	3.98084
35.61	3.9634
35.62	3.96998
35.63	3.96932
35.64	3.93478
35.65	3.97623
35.66	3.96011
35.67	3.96307
35.68	3.98116
35.69	3.97228
35.7	3.94037
35.71	3.94037
35.72	3.94037
35.73	3.93347
35.74	3.95156
35.75	3.95156
35.76	3.97426
35.77	3.95649
35.78	3.9736
35.79	3.96208
35.8	3.94564
35.81	3.95748
35.82	3.92623
35.83	3.96899
35.84	3.94827
35.85	3.97031
35.86	3.94695
35.87	3.97393
35.88	3.94662
35.89	3.95682
35.9	3.98116
35.91	3.95715
35.92	3.99366
35.93	3.99991
35.94	3.96176
35.95	3.92656
35.96	3.92886
35.97	3.94498
35.98	3.95945
35.99	4.00255
36	3.97064
36.01	3.99695
36.02	3.95287
36.03	3.97195
36.04	3.98478
36.05	3.9838
36.06	3.96965
36.07	3.95682
36.08	3.95978
36.09	3.95682
36.1	3.9782
36.11	3.96833
36.12	3.94991
36.13	3.9361
36.14	3.95649
36.15	3.97031
36.16	3.95123
36.17	3.96208
36.18	3.94004
36.19	3.96077
36.2	3.91768
36.21	3.9111
36.22	3.9713
36.23	3.93379
36.24	3.95452
36.25	3.97294
36.26	3.97294
36.27	3.95222
36.28	3.98084
36.29	3.9759
36.3	3.95649
36.31	3.91702
36.32	3.9907
36.33	3.9884
36.34	3.95847
36.35	3.96669
36.36	3.93511
36.37	3.94827
36.38	3.98051
36.39	3.95781
36.4	3.92985
36.41	3.93675
36.42	3.95945
36.43	3.93281
36.44	3.94991
36.45	3.94399
36.46	3.98281
36.47	3.97952
36.48	3.98511
36.49	3.97228
36.5	3.94432
36.51	3.98972
36.52	3.94202
36.53	3.96669
36.54	3.98116
36.55	3.97886
36.56	3.94004
36.57	3.9634
36.58	3.95287
36.59	3.96636
36.6	3.96439
36.61	3.97097
36.62	3.98116
36.63	3.94235
36.64	3.97755
36.65	3.95386
36.66	3.95156
36.67	3.98643
36.68	3.95222
36.69	3.97393
36.7	3.95452
36.71	3.93478
36.72	3.95452
36.73	3.9713
36.74	3.96801
36.75	3.98018
36.76	3.97722
36.77	3.95123
36.78	3.95419
36.79	3.96307
36.8	3.96801
36.81	4.01801
36.82	3.95912
36.83	3.95649
36.84	3.93939
36.85	3.9361
36.86	3.89004
36.87	3.93083
36.88	3.95551
36.89	3.96603
36.9	3.98577
36.91	3.96768
36.92	3.96011
36.93	3.96932
36.94	3.96537
36.95	3.98116
36.96	4.00386
36.97	3.96702
36.98	3.96866
36.99	3.97261
37	3.96044
37.01	3.96505
37.02	3.95485
37.03	3.94268
37.04	3.96768
37.05	3.97755
37.06	3.9759
37.07	3.96011
37.08	3.97853
37.09	3.96866
37.1	3.96274
37.11	3.98281
37.12	3.98544
37.13	3.97623
37.14	3.9884
37.15	3.98774
37.16	3.97491
37.17	3.96998
37.18	3.96208
37.19	3.97327
37.2	3.9361
37.21	3.97426
37.22	3.99301
37.23	3.96537
37.24	3.98084
37.25	3.95123
37.26	4.00123
37.27	3.97393
37.28	3.94366
37.29	3.96011
37.3	3.95649
37.31	3.96044
37.32	3.9532
37.33	3.98084
37.34	3.95287
37.35	3.93708
37.36	3.96636
37.37	3.97853
37.38	3.96472
37.39	3.98018
37.4	3.95978
37.41	3.95814
37.42	3.98215
37.43	4.00057
37.44	3.97228
37.45	3.94564
37.46	3.96932
37.47	3.96176
37.48	3.92129
37.49	3.97491
37.5	3.9305
37.51	3.98084
37.52	4.02064
37.53	4.00156
37.54	3.95222
37.55	3.96866
37.56	3.95156
37.57	3.96603
37.58	3.95156
37.59	3.94597
37.6	3.94893
37.61	3.94498
37.62	3.96801
37.63	3.97557
37.64	3.96406
37.65	3.92853
37.66	3.93906
37.67	3.94268
37.68	3.97064
37.69	3.97853
37.7	3.98511
37.71	3.96603
37.72	3.96636
37.73	3.93807
37.74	4.00353
37.75	4.0032
37.76	3.96439
37.77	3.92228
37.78	3.90616
37.79	3.95781
37.8	3.98116
37.81	3.95715
37.82	4.01505
37.83	3.94991
37.84	3.95189
37.85	3.98643
37.86	3.95287
37.87	3.96143
37.88	3.95748
37.89	3.94366
37.9	3.94597
37.91	3.97393
37.92	3.91899
37.93	3.93083
37.94	3.92754
37.95	3.9282
37.96	3.96801
37.97	3.94103
37.98	3.96801
37.99	3.96702
38	3.9611
38.01	3.98149
38.02	3.95287
38.03	3.97985
38.04	3.93116
38.05	3.96274
38.06	3.95024
38.07	3.91175
38.08	3.95222
38.09	3.95748
38.1	3.96505
38.11	3.99038
38.12	3.98774
38.13	3.99794
38.14	3.96176
38.15	3.95057
38.16	3.94991
38.17	3.9486
38.18	3.96833
38.19	3.97426
38.2	3.9782
38.21	3.96011
38.22	3.94169
38.23	3.95945
38.24	3.94202
38.25	3.98215
38.26	3.93379
38.27	3.9509
38.28	3.9986
38.29	3.97787
38.3	3.99202
38.31	3.9736
38.32	3.98347
38.33	3.96274
38.34	3.93083
38.35	3.95715
38.36	4.0088
38.37	3.96537
38.38	3.94235
38.39	3.95156
38.4	4.00781
38.41	4.00189
38.42	4.00288
38.43	3.97097
38.44	3.94169
38.45	3.96735
38.46	3.97952
38.47	3.95222
38.48	3.93708
38.49	3.97623
38.5	3.98116
38.51	3.96669
38.52	3.9384
38.53	3.98445
38.54	3.94728
38.55	3.95847
38.56	3.98807
38.57	3.94958
38.58	3.94366
38.59	3.96932
38.6	3.96307
38.61	3.95649
38.62	3.95781
38.63	3.95583
38.64	3.96143
38.65	3.96011
38.66	3.97064
38.67	3.95682
38.68	4.00386
38.69	3.96537
38.7	3.93215
38.71	3.93347
38.72	3.94498
38.73	3.96537
38.74	3.96406
38.75	3.97327
38.76	3.97228
38.77	4.01011
38.78	4.0009
38.79	3.98643
38.8	4.00419
38.81	3.98248
38.82	3.96702
38.83	3.97097
38.84	3.94893
38.85	3.97327
38.86	3.92689
38.87	3.96011
38.88	3.96176
38.89	3.93182
38.9	3.97459
38.91	4.00123
38.92	3.98709
38.93	3.99202
38.94	3.98314
38.95	3.9134
38.96	3.93347
38.97	3.9907
38.98	3.95715
38.99	3.96833
39	3.95912
39.01	3.95616
39.02	3.93347
39.03	3.96505
39.04	3.99301
39.05	3.98906
39.06	3.93248
39.07	3.93577
39.08	3.96208
39.09	3.95781
39.1	3.94926
39.11	3.94498
39.12	3.99038
39.13	3.95156
39.14	3.95682
39.15	3.94991
39.16	3.95386
39.17	3.9782
39.18	3.97064
39.19	3.96176
39.2	3.98051
39.21	3.94465
39.22	3.95748
39.23	3.95419
39.24	3.92294
39.25	3.9634
39.26	3.96801
39.27	3.94761
39.28	3.94794
39.29	3.92656
39.3	3.97097
39.31	3.99268
39.32	3.96044
39.33	3.99794
39.34	3.94991
39.35	3.98577
39.36	3.97031
39.37	3.95024
39.38	3.92327
39.39	3.93972
39.4	3.96044
39.41	3.94498
39.42	3.94728
39.43	3.97787
39.44	3.94827
39.45	3.96011
39.46	3.95551
39.47	3.92524
39.48	3.9532
39.49	3.97689
39.5	3.96143
39.51	3.97623
39.52	3.93577
39.53	3.95123
39.54	3.97557
39.55	3.95518
39.56	3.99991
39.57	3.99169
39.58	3.96735
39.59	3.94498
39.6	3.91866
39.61	3.97886
39.62	3.95649
39.63	3.95254
39.64	3.94958
39.65	3.95189
39.66	3.97294
39.67	3.97787
39.68	3.95551
39.69	3.95649
39.7	3.9361
39.71	3.96965
39.72	3.95024
39.73	3.9532
39.74	3.95518
39.75	3.97195
39.76	3.95715
39.77	3.95583
39.78	3.94136
39.79	3.94991
39.8	3.96472
39.81	3.9713
39.82	3.97195
39.83	3.96472
39.84	3.98018
39.85	4.00978
39.86	3.93873
39.87	3.94202
39.88	3.93741
39.89	3.93972
39.9	3.9634
39.91	3.93083
39.92	3.96998
39.93	3.95024
39.94	3.97886
39.95	3.97097
39.96	4.00715
39.97	3.99728
39.98	3.97294
39.99	3.96998
40	3.98248
40.01	3.94037
40.02	3.93379
40.03	4.01538
40.04	3.97722
40.05	3.93215
40.06	3.9611
40.07	3.93972
40.08	3.92425
40.09	3.93577
40.1	3.96932
40.11	3.96735
40.12	3.93939
40.13	3.96373
40.14	3.93807
40.15	3.93708
40.16	3.95353
40.17	3.96505
40.18	3.94761
40.19	3.96636
40.2	3.95518
40.21	3.97524
40.22	3.98709
40.23	3.94564
40.24	3.93577
40.25	3.97459
40.26	3.97853
40.27	4.0384
40.28	3.96768
40.29	3.93445
40.3	3.96274
40.31	3.94432
40.32	3.94728
40.33	3.96537
40.34	3.94926
40.35	3.94531
40.36	3.96406
40.37	3.94564
40.38	3.92524
40.39	3.92327
40.4	3.95222
40.41	3.93478
40.42	3.9509
40.43	3.98182
40.44	3.97755
40.45	3.95945
40.46	3.94399
40.47	3.97393
40.48	3.92393
40.49	3.96472
40.5	3.94597
40.51	3.96768
40.52	3.95452
40.53	3.97656
40.54	3.98084
40.55	3.99761
40.56	3.96965
40.57	3.96965
40.58	4.00123
40.59	3.95485
40.6	3.98478
40.61	3.97327
40.62	3.98248
40.63	3.97623
40.64	3.94926
40.65	3.95419
40.66	3.96866
40.67	3.98906
40.68	3.96472
40.69	3.98215
40.7	3.98774
40.71	3.95386
40.72	3.9407
40.73	3.9588
40.74	3.97524
40.75	3.95518
40.76	3.98412
40.77	3.96899
40.78	3.92919
40.79	3.92557
40.8	3.96537
40.81	3.97228
40.82	3.92425
40.83	3.9736
40.84	3.95452
40.85	3.94465
40.86	3.93972
40.87	3.94432
40.88	3.94465
40.89	3.9384
40.9	3.92952
40.91	3.98643
40.92	3.94202
40.93	3.97162
40.94	3.94991
40.95	3.94827
40.96	3.93116
40.97	3.94531
40.98	3.99432
40.99	3.93379
41	3.98709
41.01	3.98544
41.02	3.9588
41.03	3.94794
41.04	3.98643
41.05	3.98347
41.06	3.9759
41.07	3.99399
41.08	3.99136
41.09	3.99827
41.1	3.98051
41.11	4.00584
41.12	3.9713
41.13	3.96241
41.14	3.96077
41.15	3.96899
41.16	3.97919
41.17	3.9657
41.18	3.95156
41.19	3.97623
41.2	3.9884
41.21	3.98906
41.22	3.94662
41.23	3.97524
41.24	3.97426
41.25	3.97722
41.26	3.94103
41.27	3.93873
41.28	3.95748
41.29	3.97919
41.3	4.01143
41.31	3.9611
41.32	3.94794
41.33	3.94235
41.34	3.94893
41.35	3.97524
41.36	3.97919
41.37	3.9736
41.38	3.96998
41.39	3.97228
41.4	3.92754
41.41	3.96965
41.42	3.94893
41.43	3.98774
41.44	3.9111
41.45	3.90846
41.46	3.92557
41.47	3.97623
41.48	3.97294
41.49	3.98478
41.5	3.95287
41.51	3.99038
41.52	3.94893
41.53	3.96505
41.54	3.95123
41.55	3.9657
41.56	3.96472
41.57	3.91965
41.58	3.92393
41.59	3.94004
41.6	3.94794
41.61	3.93873
41.62	3.94794
41.63	3.96439
41.64	3.96866
41.65	3.9532
41.66	3.94695
41.67	3.96669
41.68	3.96965
41.69	4.02294
41.7	3.93478
41.71	3.93708
41.72	3.96011
41.73	3.95123
41.74	3.9384
41.75	3.93643
41.76	3.98084
41.77	3.96932
41.78	3.94794
41.79	3.93972
41.8	3.95156
41.81	3.91899
41.82	3.89991
41.83	3.94268
41.84	3.95518
41.85	3.94991
41.86	3.97327
41.87	3.96866
41.88	3.92557
41.89	3.91669
41.9	3.91603
41.91	3.96176
41.92	3.99235
41.93	3.95583
41.94	3.91537
41.95	3.94399
41.96	3.94958
41.97	3.99761
41.98	3.98051
41.99	3.97985
42	3.96176
42.01	3.96044
42.02	3.97195
42.03	3.99005
42.04	3.96406
42.05	3.93939
42.06	3.95057
42.07	3.95353
42.08	3.94366
42.09	3.95419
42.1	3.98478
42.11	3.96537
42.12	3.92952
42.13	3.96636
42.14	3.97162
42.15	3.96998
42.16	3.93116
42.17	3.95419
42.18	3.96143
42.19	3.9861
42.2	3.95814
42.21	3.93906
42.22	3.95682
42.23	3.94597
42.24	3.90254
42.25	3.96143
42.26	3.95583
42.27	3.95945
42.28	3.97952
42.29	3.95057
42.3	3.93939
42.31	4.00189
42.32	3.96768
42.33	3.9657
42.34	3.93873
42.35	3.9486
42.36	3.92656
42.37	3.94268
42.38	3.9407
42.39	3.94991
42.4	3.98182
42.41	3.97689
42.42	3.94794
42.43	3.95715
42.44	3.96768
42.45	3.96866
42.46	3.96932
42.47	3.9611
42.48	3.94991
42.49	3.97393
42.5	3.97557
42.51	3.94399
42.52	3.92261
42.53	3.94893
42.54	3.95781
42.55	3.94893
42.56	3.91866
42.57	3.95847
42.58	3.96735
42.59	3.97426
42.6	3.95254
42.61	3.97064
42.62	3.95057
42.63	3.9657
42.64	3.94794
42.65	3.94399
42.66	3.97787
42.67	3.97064
42.68	3.94728
42.69	3.93708
42.7	3.93511
42.71	3.93774
42.72	3.93182
42.73	3.93544
42.74	3.94366
42.75	3.98577
42.76	3.93972
42.77	3.92787
42.78	3.99597
42.79	3.96241
42.8	3.9407
42.81	3.9407
42.82	3.95386
42.83	3.95518
42.84	3.95254
42.85	3.95847
42.86	3.91208
42.87	3.93807
42.88	3.96636
42.89	3.95912
42.9	3.95715
42.91	3.92458
42.92	3.94662
42.93	3.96208
42.94	3.94202
42.95	3.92129
42.96	3.95649
42.97	3.95781
42.98	3.96636
42.99	3.93972
43	3.96472
43.01	3.97327
43.02	3.96176
43.03	3.95912
43.04	3.94695
43.05	3.95518
43.06	3.95518
43.07	3.94794
43.08	3.94004
43.09	3.95024
43.1	3.9134
43.11	3.91998
43.12	3.99432
43.13	3.97327
43.14	3.96998
43.15	3.92327
43.16	3.94432
43.17	3.9282
43.18	3.95551
43.19	3.93708
43.2	3.99827
43.21	3.97919
43.22	4.00024
43.23	3.97195
43.24	3.96143
43.25	3.95945
43.26	3.94958
43.27	3.93149
43.28	3.96768
43.29	3.99268
43.3	3.96373
43.31	3.95123
43.32	4.00814
43.33	3.97985
43.34	3.94597
43.35	3.92722
43.36	3.95156
43.37	3.94004
43.38	3.9532
43.39	3.94268
43.4	3.95222
43.41	3.97261
43.42	3.92656
43.43	3.97162
43.44	3.95485
43.45	3.92557
43.46	3.92722
43.47	3.96735
43.48	3.94004
43.49	3.9509
43.5	3.94794
43.51	3.95978
43.52	3.96932
43.53	3.95254
43.54	3.92853
43.55	3.96702
43.56	3.95419
43.57	3.97426
43.58	3.98215
43.59	3.97294
43.6	3.9759
43.61	3.96011
43.62	3.9759
43.63	3.97426
43.64	3.92886
43.65	3.96702
43.66	3.95518
43.67	3.98676
43.68	3.98116
43.69	3.95912
43.7	3.96406
43.71	3.94728
43.72	3.92162
43.73	3.9361
43.74	3.96208
43.75	3.99926
43.76	3.9509
43.77	3.95057
43.78	3.97294
43.79	3.95287
43.8	3.93182
43.81	3.94333
43.82	3.97491
43.83	3.99926
43.84	3.97195
43.85	3.93873
43.86	3.99991
43.87	3.96603
43.88	3.94564
43.89	3.98873
43.9	3.97755
43.91	3.99136
43.92	3.98643
43.93	3.97162
43.94	3.95814
43.95	4.01735
43.96	3.98577
43.97	3.98412
43.98	3.98643
43.99	3.99005
44	3.96932
44.01	3.98807
44.02	3.9486
44.03	3.99761
44.04	3.96208
44.05	3.98084
44.06	3.9611
44.07	3.98281
44.08	3.94629
44.09	3.93675
44.1	3.95649
44.11	3.97787
44.12	3.97097
44.13	3.98051
44.14	3.98741
44.15	3.96702
44.16	3.97097
44.17	3.98051
44.18	3.91965
44.19	3.92853
44.2	3.97656
44.21	3.97327
44.22	3.97228
44.23	3.95123
44.24	3.9305
44.25	3.95912
44.26	3.95123
44.27	3.95649
44.28	3.95847
44.29	3.93379
44.3	3.98116
44.31	3.96768
44.32	3.92064
44.33	3.93281
44.34	3.94827
44.35	3.97097
44.36	3.97031
44.37	3.97064
44.38	3.94333
44.39	3.95748
44.4	3.95847
44.41	3.95024
44.42	3.98544
44.43	3.97919
44.44	3.9486
44.45	3.97689
44.46	3.97064
44.47	3.95814
44.48	3.94301
44.49	3.95847
44.5	3.96505
44.51	3.93116
44.52	3.93412
44.53	3.95254
44.54	3.97623
44.55	3.95287
44.56	3.95024
44.57	3.95353
44.58	3.96899
44.59	3.92129
44.6	3.96801
44.61	3.93412
44.62	3.98084
44.63	3.93774
44.64	3.9509
44.65	3.97228
44.66	3.96768
44.67	3.97491
44.68	3.95485
44.69	3.95386
44.7	3.96537
44.71	3.96537
44.72	3.97557
44.73	3.95452
44.74	3.94564
44.75	3.93379
44.76	3.9759
44.77	3.95057
44.78	3.93708
44.79	3.96274
44.8	3.96801
44.81	3.92393
44.82	3.94827
44.83	3.97195
44.84	3.96044
44.85	3.91932
44.86	3.95616
44.87	3.9486
44.88	3.9588
44.89	3.91636
44.9	3.97426
44.91	3.98774
44.92	3.98807
44.93	3.96406
44.94	3.97294
44.95	3.95814
44.96	3.9361
44.97	3.95024
44.98	3.97557
44.99	3.96176
45	3.94498
45.01	3.9634
45.02	3.92425
45.03	3.97689
45.04	3.98281
45.05	3.97393
45.06	3.9509
45.07	3.93347
45.08	3.94465
45.09	3.94761
45.1	3.93939
45.11	3.93972
45.12	3.94662
45.13	3.97689
45.14	3.99202
45.15	3.96899
45.16	3.9588
45.17	3.97919
45.18	3.96077
45.19	3.95123
45.2	3.93807
45.21	3.96373
45.22	3.95189
45.23	3.92787
45.24	3.92228
45.25	3.92853
45.26	3.94958
45.27	3.95847
45.28	3.99005
45.29	3.98149
45.3	3.97853
45.31	3.92327
45.32	3.93643
45.33	3.96702
45.34	3.9611
45.35	3.95748
45.36	3.96044
45.37	3.96932
45.38	3.96505
45.39	3.9588
45.4	3.95024
45.41	3.92425
45.42	4.00419
45.43	3.97031
45.44	3.94926
45.45	3.94597
45.46	3.92393
45.47	3.98577
45.48	3.99366
45.49	3.97787
45.5	3.9782
45.51	3.9407
45.52	3.94597
45.53	3.9588
45.54	3.93379
45.55	3.94827
45.56	3.95616
45.57	3.96044
45.58	3.94103
45.59	3.94235
45.6	4.00551
45.61	3.97656
45.62	3.93939
45.63	3.94926
45.64	3.97886
45.65	3.95912
45.66	3.95814
45.67	3.96044
45.68	3.96998
45.69	3.98445
45.7	3.95189
45.71	3.94531
45.72	3.95485
45.73	3.92162
45.74	3.95156
45.75	3.91274
45.76	3.91406
45.77	3.97097
45.78	3.9759
45.79	3.94202
45.8	3.94695
45.81	3.95847
45.82	3.97097
45.83	3.94629
45.84	3.95287
45.85	3.96505
45.86	3.98182
45.87	3.96472
45.88	3.93544
45.89	3.96011
45.9	3.9884
45.91	3.97491
45.92	3.9282
45.93	3.96208
45.94	3.94531
45.95	3.94794
45.96	3.93182
45.97	3.93708
45.98	3.90123
45.99	3.8782
46	3.92656
46.01	3.96077
46.02	3.95156
46.03	3.95386
46.04	3.93873
46.05	3.95649
46.06	3.9611
46.07	3.94136
46.08	3.91537
46.09	3.94268
46.1	3.96603
46.11	3.97853
46.12	3.99432
46.13	3.92261
46.14	3.92096
46.15	3.93314
46.16	3.94432
46.17	3.93182
46.18	3.95814
46.19	3.96439
46.2	3.96176
46.21	3.94662
46.22	3.95781
46.23	3.95156
46.24	3.97853
46.25	3.99235
46.26	3.93577
46.27	3.97491
46.28	3.95485
46.29	3.94531
46.3	3.93675
46.31	3.97689
46.32	3.95978
46.33	3.92195
46.34	3.94827
46.35	3.96143
46.36	3.96439
46.37	3.95057
46.38	3.93906
46.39	3.95715
46.4	3.96965
46.41	3.96833
46.42	3.99926
46.43	3.96866
46.44	3.95781
46.45	3.9634
46.46	3.94268
46.47	3.95057
46.48	3.97097
46.49	3.93215
46.5	3.94169
46.51	3.97524
46.52	3.93577
46.53	3.95715
46.54	3.93577
46.55	3.94695
46.56	3.94498
46.57	3.94827
46.58	3.93939
46.59	3.96439
46.6	3.92853
46.61	3.94268
46.62	3.99038
46.63	3.9782
46.64	3.90649
46.65	3.94893
46.66	3.9305
46.67	3.93018
46.68	3.90386
46.69	3.97064
46.7	3.95682
46.71	3.9486
46.72	3.97459
46.73	3.95583
46.74	3.96176
46.75	3.93774
46.76	3.93182
46.77	3.92425
46.78	3.9588
46.79	3.96472
46.8	3.95682
46.81	3.9509
46.82	3.9532
46.83	3.95254
46.84	3.93018
46.85	3.94465
46.86	3.95945
46.87	3.95649
46.88	3.97162
46.89	3.93412
46.9	3.93873
46.91	3.94564
46.92	3.96077
46.93	3.9509
46.94	3.97162
46.95	3.93018
46.96	3.91932
46.97	3.95814
46.98	3.98676
46.99	3.95978
47	3.94037
47.01	3.93412
47.02	3.95748
47.03	3.95222
47.04	3.97195
47.05	3.97097
47.06	3.93577
47.07	3.9509
47.08	3.98511
47.09	3.95419
47.1	3.97426
47.11	3.96636
47.12	3.96143
47.13	3.95353
47.14	3.92689
47.15	3.91702
47.16	3.9259
47.17	3.90814
47.18	3.91833
47.19	3.93182
47.2	3.94794
47.21	3.98577
47.22	3.96406
47.23	3.94531
47.24	3.97393
47.25	3.98215
47.26	3.99169
47.27	3.92689
47.28	3.94827
47.29	3.94004
47.3	3.99235
47.31	3.93215
47.32	3.94794
47.33	3.96899
47.34	3.95353
47.35	3.98972
47.36	3.98182
47.37	3.96373
47.38	3.95386
47.39	3.96307
47.4	3.95156
47.41	3.92228
47.42	3.94728
47.43	3.94136
47.44	3.9657
47.45	3.97426
47.46	3.94333
47.47	3.95123
47.48	3.96998
47.49	3.96636
47.5	3.98709
47.51	3.95847
47.52	3.9532
47.53	3.97656
47.54	3.95024
47.55	3.95123
47.56	3.92294
47.57	3.93774
47.58	3.89596
47.59	3.92228
47.6	3.93972
47.61	3.96801
47.62	3.93149
47.63	3.97064
47.64	3.96011
47.65	3.94728
47.66	3.96768
47.67	3.94301
47.68	3.96636
47.69	3.9486
47.7	3.9509
47.71	3.96932
47.72	3.95814
47.73	3.96537
47.74	3.96077
47.75	3.95551
47.76	3.93018
47.77	3.94169
47.78	3.94564
47.79	3.94629
47.8	3.9509
47.81	3.92129
47.82	3.97623
47.83	3.95945
47.84	3.93544
47.85	3.93873
47.86	3.96505
47.87	4.00978
47.88	3.93445
47.89	3.95978
47.9	3.97491
47.91	3.9713
47.92	3.96768
47.93	3.99202
47.94	3.9713
47.95	3.96833
47.96	3.98939
47.97	3.9861
47.98	3.94366
47.99	3.95222
48	3.95254
48.01	3.91636
48.02	3.94004
48.03	3.95583
48.04	3.93511
48.05	3.98445
48.06	3.97524
48.07	3.95518
48.08	3.9657
48.09	3.99564
48.1	3.9838
48.11	3.97031
48.12	3.99761
48.13	3.99334
48.14	3.93873
48.15	3.94136
48.16	3.95287
48.17	3.94531
48.18	3.96143
48.19	3.92458
48.2	3.92787
48.21	3.9259
48.22	3.94761
48.23	3.93577
48.24	3.95452
48.25	3.96866
48.26	3.94564
48.27	3.95518
48.28	3.95287
48.29	3.92754
48.3	3.96373
48.31	3.93807
48.32	3.96636
48.33	3.95912
48.34	3.97097
48.35	3.94695
48.36	3.96439
48.37	3.94827
48.38	3.95254
48.39	3.97261
48.4	3.96932
48.41	3.99235
48.42	3.97426
48.43	3.93675
48.44	3.95912
48.45	3.95847
48.46	3.9009
48.47	3.90057
48.48	3.97228
48.49	3.94399
48.5	3.95222
48.51	3.94728
48.52	3.95616
48.53	3.96011
48.54	3.94794
48.55	3.9407
48.56	3.94794
48.57	3.95912
48.58	3.97195
48.59	3.9588
48.6	3.9657
48.61	3.93741
48.62	3.92985
48.63	3.94695
48.64	3.95682
48.65	3.94301
48.66	3.96143
48.67	3.96899
48.68	3.95024
48.69	3.93906
48.7	3.97755
48.71	3.95551
48.72	3.94202
48.73	3.93182
48.74	3.9736
48.75	3.96439
48.76	3.9884
48.77	3.97228
48.78	3.96307
48.79	3.93379
48.8	3.92064
48.81	3.93643
48.82	3.92623
48.83	3.94004
48.84	3.96472
48.85	3.9407
48.86	3.94629
48.87	3.96899
48.88	3.94004
48.89	3.92327
48.9	3.97162
48.91	3.98248
48.92	3.92524
48.93	3.95847
48.94	3.95518
48.95	3.97459
48.96	3.98478
48.97	3.9588
48.98	3.95649
48.99	3.94498
49	3.96208
49.01	3.97491
49.02	3.94235
49.03	3.9861
49.04	3.96768
49.05	3.95485
49.06	3.94926
49.07	3.93478
49.08	3.98182
49.09	3.9782
49.1	3.93741
49.11	3.9736
49.12	3.99235
49.13	3.9509
49.14	3.98149
49.15	3.94333
49.16	3.9588
49.17	3.94169
49.18	3.91735
49.19	3.95419
49.2	3.90978
49.21	3.93972
49.22	3.96965
49.23	3.93544
49.24	3.95419
49.25	3.92886
49.26	3.93149
49.27	3.92327
49.28	3.9759
49.29	3.96603
49.3	3.94597
49.31	3.96472
49.32	3.9361
49.33	3.9407
49.34	3.96768
49.35	3.93906
49.36	3.95386
49.37	3.94991
49.38	3.96505
49.39	3.97393
49.4	3.95616
49.41	3.97195
49.42	3.98314
49.43	3.95287
49.44	3.96472
49.45	3.93182
49.46	3.93774
49.47	3.94004
49.48	3.94432
49.49	3.92425
49.5	3.97064
49.51	3.95057
49.52	3.95715
49.53	3.93708
49.54	3.94991
49.55	3.96406
49.56	3.9486
49.57	3.97985
49.58	3.9611
49.59	3.96735
49.6	3.94893
49.61	3.94761
49.62	3.95649
49.63	4.00978
49.64	3.92623
49.65	3.91899
49.66	3.93018
49.67	3.96537
49.68	3.96636
49.69	3.91175
49.7	3.94991
49.71	3.96241
49.72	3.93807
49.73	3.96505
49.74	3.94432
49.75	3.93708
49.76	3.9361
49.77	3.92261
49.78	3.98215
49.79	3.97919
49.8	3.95222
49.81	3.94564
49.82	3.9611
49.83	3.93314
49.84	3.96143
49.85	3.95814
49.86	3.93215
49.87	3.94037
49.88	3.93939
49.89	3.94794
49.9	3.95189
49.91	3.98248
49.92	3.96998
49.93	3.95386
49.94	3.95978
49.95	3.97491
49.96	3.97261
49.97	3.97755
49.98	3.96406
49.99	3.92327
50	3.92491
