"BIO-KINE ASCII FILE"
"_COMMENT"	"MOS-500 Spectrometer"
"_COMMENT"	"Kinetics measurement"
"_COMMENT"	"Y Unit : Volt,  X Unit : s"
"_COMMENT"	"Excitation wavelength : 380 nm"
"_COMMENT"	"Fentes bandwidth =  1 nm"
"_COMMENT"	"HV= 700V"
"_COMMENT"	"Timebase  1 =  .01 s   3001 pts"
"_SFM"	"SFM-400 /S  Advanced mode"
"_SFM"	"Ratio : S1: 2.5, S2: 0, S3: 0, S4: 1"
"_SFM"	"Content : S1: , S2: , S3: , S4:"
"_SFM"	"Concentration : S1: , S2: , S3: , S4:"
"_SFM"	"Total volume : 209 µl  Flow : 3.5 mL/s"
"_SFM"	"Acquisition start :  10 ms before stop"
"_SFM"	"cuve=FC-15, s1=10 ml , s2=10 ml , s3=10 ml , s4=1.9 ml"
"_UNITX"	"s"
"_UNITY"	"Volt"
"_DELTAX"	0
"_DATA"
1e-300	7.29409
0.01	8.05069
0.02	8.2701
0.03	8.32438
0.04	8.31286
0.05	8.3178
0.06	8.31155
0.07	8.31747
0.08	8.31582
0.09	8.328
0.1	8.33425
0.11	8.33885
0.12	8.3349
0.13	8.35563
0.14	8.35069
0.15	8.3428
0.16	8.34412
0.17	8.33227
0.18	8.3155
0.19	8.31451
0.2	8.31714
0.21	8.32142
0.22	8.30957
0.23	8.31418
0.24	8.3201
0.25	8.30925
0.26	8.29576
0.27	8.28688
0.28	8.29971
0.29	8.29707
0.3	8.2826
0.31	8.26813
0.32	8.27142
0.33	8.25826
0.34	8.27142
0.35	8.25924
0.36	8.26615
0.37	8.24642
0.38	8.23424
0.39	8.23392
0.4	8.22865
0.41	8.22174
0.42	8.21319
0.43	8.21188
0.44	8.21582
0.45	8.20332
0.46	8.19773
0.47	8.19148
0.48	8.17536
0.49	8.17635
0.5	8.17733
0.51	8.16977
0.52	8.15661
0.53	8.15793
0.54	8.16385
0.55	8.14214
0.56	8.13062
0.57	8.12536
0.58	8.12306
0.59	8.11154
0.6	8.1099
0.61	8.1076
0.62	8.11023
0.63	8.0951
0.64	8.08556
0.65	8.08457
0.66	8.08029
0.67	8.06845
0.68	8.07898
0.69	8.07865
0.7	8.07832
0.71	8.06319
0.72	8.04608
0.73	8.03029
0.74	8.03819
0.75	8.0247
0.76	8.01746
0.77	8.02602
0.78	8.02536
0.79	8.00727
0.8	7.9997
0.81	7.99641
0.82	7.99838
0.83	7.9895
0.84	7.99016
0.85	7.97272
0.86	7.95628
0.87	7.9599
0.88	7.95595
0.89	7.92897
0.9	7.93259
0.91	7.92042
0.92	7.91647
0.93	7.92404
0.94	7.91911
0.95	7.90825
0.96	7.91121
0.97	7.8941
0.98	7.8895
0.99	7.89674
1	7.8645
1.01	7.85891
1.02	7.87272
1.03	7.86285
1.04	7.85134
1.05	7.84904
1.06	7.85101
1.07	7.84246
1.08	7.81483
1.09	7.82042
1.1	7.81088
1.11	7.80233
1.12	7.79246
1.13	7.7895
1.14	7.78851
1.15	7.77239
1.16	7.77502
1.17	7.777
1.18	7.76219
1.19	7.75529
1.2	7.74246
1.21	7.74936
1.22	7.74279
1.23	7.73686
1.24	7.71746
1.25	7.72601
1.26	7.71219
1.27	7.7089
1.28	7.6964
1.29	7.68127
1.3	7.68292
1.31	7.66351
1.32	7.6737
1.33	7.6862
1.34	7.67469
1.35	7.65199
1.36	7.65166
1.37	7.64048
1.38	7.63522
1.39	7.63587
1.4	7.61614
1.41	7.62337
1.42	7.61252
1.43	7.61219
1.44	7.60298
1.45	7.58554
1.46	7.58686
1.47	7.57765
1.48	7.56844
1.49	7.56647
1.5	7.55725
1.51	7.54048
1.52	7.551
1.53	7.54475
1.54	7.53258
1.55	7.53554
1.56	7.52041
1.57	7.50923
1.58	7.50824
1.59	7.50265
1.6	7.50035
1.61	7.48653
1.62	7.4783
1.63	7.47666
1.64	7.46613
1.65	7.45923
1.66	7.45232
1.67	7.46284
1.68	7.46219
1.69	7.43916
1.7	7.42929
1.71	7.4283
1.72	7.41942
1.73	7.41383
1.74	7.40955
1.75	7.41613
1.76	7.39903
1.77	7.39311
1.78	7.39245
1.79	7.37896
1.8	7.36942
1.81	7.37074
1.82	7.35791
1.83	7.351
1.84	7.34409
1.85	7.34212
1.86	7.34935
1.87	7.34968
1.88	7.3431
1.89	7.31185
1.9	7.32106
1.91	7.32797
1.92	7.31284
1.93	7.28883
1.94	7.29343
1.95	7.28093
1.96	7.26843
1.97	7.26481
1.98	7.25955
1.99	7.25856
2	7.25955
2.01	7.25659
2.02	7.24573
2.03	7.23258
2.04	7.23488
2.05	7.22632
2.06	7.22402
2.07	7.21481
2.08	7.20165
2.09	7.18948
2.1	7.19014
2.11	7.18586
2.12	7.16974
2.13	7.17073
2.14	7.17139
2.15	7.15856
2.16	7.15067
2.17	7.13948
2.18	7.13751
2.19	7.14277
2.2	7.13191
2.21	7.11645
2.22	7.11185
2.23	7.1102
2.24	7.09902
2.25	7.09211
2.26	7.09145
2.27	7.07764
2.28	7.0704
2.29	7.06645
2.3	7.06448
2.31	7.04671
2.32	7.04474
2.33	7.03915
2.34	7.02731
2.35	7.03257
2.36	7.02632
2.37	7.01842
2.38	7.01645
2.39	7.01448
2.4	7.00625
2.41	6.98421
2.42	6.99277
2.43	6.98125
2.44	6.96744
2.45	6.96382
2.46	6.96415
2.47	6.96184
2.48	6.96184
2.49	6.94178
2.5	6.94902
2.51	6.94276
2.52	6.9352
2.53	6.92665
2.54	6.91546
2.55	6.90329
2.56	6.90066
2.57	6.90395
2.58	6.89276
2.59	6.89737
2.6	6.87993
2.61	6.88257
2.62	6.86809
2.63	6.86776
2.64	6.85559
2.65	6.85362
2.66	6.85954
2.67	6.85954
2.68	6.84868
2.69	6.83881
2.7	6.82302
2.71	6.81579
2.72	6.80197
2.73	6.8102
2.74	6.80625
2.75	6.8
2.76	6.79901
2.77	6.77368
2.78	6.7796
2.79	6.7796
2.8	6.77566
2.81	6.76612
2.82	6.76447
2.83	6.75559
2.84	6.74243
2.85	6.73717
2.86	6.73848
2.87	6.73914
2.88	6.71085
2.89	6.7171
2.9	6.70526
2.91	6.69703
2.92	6.69868
2.93	6.70361
2.94	6.69078
2.95	6.67532
2.96	6.6648
2.97	6.66677
2.98	6.6546
2.99	6.64999
3	6.63585
3.01	6.63947
3.02	6.64407
3.03	6.62927
3.04	6.62894
3.05	6.61578
3.06	6.61743
3.07	6.61151
3.08	6.59966
3.09	6.58947
3.1	6.5842
3.11	6.58322
3.12	6.58058
3.13	6.56743
3.14	6.56611
3.15	6.56447
3.16	6.55657
3.17	6.54571
3.18	6.54341
3.19	6.54473
3.2	6.54374
3.21	6.5342
3.22	6.53486
3.23	6.52137
3.24	6.51907
3.25	6.51446
3.26	6.49111
3.27	6.49867
3.28	6.49209
3.29	6.48782
3.3	6.47598
3.31	6.49045
3.32	6.48486
3.33	6.47861
3.34	6.46775
3.35	6.45986
3.36	6.4467
3.37	6.44999
3.38	6.4444
3.39	6.43551
3.4	6.44407
3.41	6.43979
3.42	6.42433
3.43	6.42005
3.44	6.41676
3.45	6.40492
3.46	6.40755
3.47	6.40722
3.48	6.39012
3.49	6.38485
3.5	6.39111
3.51	6.37367
3.52	6.37071
3.53	6.37499
3.54	6.36643
3.55	6.34933
3.56	6.35196
3.57	6.34209
3.58	6.3365
3.59	6.32498
3.6	6.32729
3.61	6.33025
3.62	6.32466
3.63	6.31051
3.64	6.30163
3.65	6.30393
3.66	6.29242
3.67	6.29439
3.68	6.28222
3.69	6.27663
3.7	6.28551
3.71	6.27597
3.72	6.27498
3.73	6.26051
3.74	6.25623
3.75	6.26248
3.76	6.26117
3.77	6.23979
3.78	6.22827
3.79	6.22696
3.8	6.23353
3.81	6.23584
3.82	6.22564
3.83	6.21248
3.84	6.2059
3.85	6.20492
3.86	6.20031
3.87	6.19538
3.88	6.18748
3.89	6.18715
3.9	6.18386
3.91	6.16972
3.92	6.16445
3.93	6.1559
3.94	6.15393
3.95	6.14932
3.96	6.14998
3.97	6.1434
3.98	6.13682
3.99	6.12728
4	6.1184
4.01	6.12333
4.02	6.11314
4.03	6.10656
4.04	6.1059
4.05	6.0832
4.06	6.09044
4.07	6.07925
4.08	6.07596
4.09	6.09143
4.1	6.07399
4.11	6.06807
4.12	6.06248
4.13	6.06577
4.14	6.05425
4.15	6.04998
4.16	6.04702
4.17	6.05261
4.18	6.03879
4.19	6.02695
4.2	6.02366
4.21	6.02103
4.22	6.00919
4.23	6.01017
4.24	6.01577
4.25	6.00195
4.26	5.98616
4.27	5.98846
4.28	5.99373
4.29	5.99603
4.3	5.99044
4.31	5.97892
4.32	5.97103
4.33	5.9628
4.34	5.96905
4.35	5.96412
4.36	5.94636
4.37	5.948
4.38	5.94767
4.39	5.94109
4.4	5.94405
4.41	5.93484
4.42	5.93287
4.43	5.93188
4.44	5.92432
4.45	5.93024
4.46	5.91938
4.47	5.90359
4.48	5.90918
4.49	5.90392
4.5	5.90063
4.51	5.89339
4.52	5.89306
4.53	5.87793
4.54	5.87037
4.55	5.86576
4.56	5.87201
4.57	5.85227
4.58	5.83944
4.59	5.85787
4.6	5.85129
4.61	5.84405
4.62	5.84405
4.63	5.83648
4.64	5.83648
4.65	5.82004
4.66	5.83714
4.67	5.82662
4.68	5.81971
4.69	5.8128
4.7	5.81675
4.71	5.80589
4.72	5.8026
4.73	5.79273
4.74	5.78319
4.75	5.773
4.76	5.76346
4.77	5.76806
4.78	5.78254
4.79	5.77069
4.8	5.76082
4.81	5.73878
4.82	5.75721
4.83	5.75326
4.84	5.73944
4.85	5.7378
4.86	5.73352
4.87	5.73747
4.88	5.72694
4.89	5.72595
4.9	5.7253
4.91	5.72892
4.92	5.71641
4.93	5.70951
4.94	5.70786
4.95	5.70819
4.96	5.69964
4.97	5.69635
4.98	5.68483
4.99	5.68681
5	5.67891
5.01	5.69207
5.02	5.68648
5.03	5.67891
5.04	5.66345
5.05	5.66049
5.06	5.67168
5.07	5.66411
5.08	5.64569
5.09	5.647
5.1	5.64372
5.11	5.62891
5.12	5.63582
5.13	5.61444
5.14	5.6276
5.15	5.63187
5.16	5.61937
5.17	5.61049
5.18	5.61411
5.19	5.60589
5.2	5.60227
5.21	5.59536
5.22	5.58681
5.23	5.58713
5.24	5.59174
5.25	5.58483
5.26	5.57694
5.27	5.57924
5.28	5.56312
5.29	5.56477
5.3	5.56477
5.31	5.56477
5.32	5.55786
5.33	5.56477
5.34	5.55917
5.35	5.55358
5.36	5.55523
5.37	5.55588
5.38	5.54141
5.39	5.53845
5.4	5.53549
5.41	5.53417
5.42	5.52825
5.43	5.52101
5.44	5.52069
5.45	5.51115
5.46	5.51115
5.47	5.50161
5.48	5.50457
5.49	5.50588
5.5	5.5049
5.51	5.49963
5.52	5.50654
5.53	5.50029
5.54	5.48911
5.55	5.47858
5.56	5.47891
5.57	5.48483
5.58	5.4743
5.59	5.46114
5.6	5.46016
5.61	5.45753
5.62	5.45687
5.63	5.44897
5.64	5.44831
5.65	5.44996
5.66	5.44009
5.67	5.4368
5.68	5.44634
5.69	5.42726
5.7	5.42726
5.71	5.41673
5.72	5.40489
5.73	5.41838
5.74	5.42035
5.75	5.41114
5.76	5.40489
5.77	5.39173
5.78	5.39733
5.79	5.40489
5.8	5.39404
5.81	5.39437
5.82	5.38779
5.83	5.38121
5.84	5.36015
5.85	5.37035
5.86	5.3766
5.87	5.37759
5.88	5.36476
5.89	5.36015
5.9	5.34963
5.91	5.35719
5.92	5.35423
5.93	5.34798
5.94	5.35029
5.95	5.34765
5.96	5.34404
5.97	5.35884
5.98	5.33976
5.99	5.33088
6	5.32627
6.01	5.32759
6.02	5.33186
6.03	5.33647
6.04	5.3266
6.05	5.32331
6.06	5.31607
6.07	5.31278
6.08	5.29897
6.09	5.30028
6.1	5.29897
6.11	5.29699
6.12	5.30489
6.13	5.29239
6.14	5.29173
6.15	5.29897
6.16	5.2937
6.17	5.29239
6.18	5.27792
6.19	5.28022
6.2	5.28482
6.21	5.28318
6.22	5.27528
6.23	5.26969
6.24	5.26114
6.25	5.26838
6.26	5.26311
6.27	5.26048
6.28	5.24601
6.29	5.24962
6.3	5.23548
6.31	5.24107
6.32	5.2368
6.33	5.23943
6.34	5.2391
6.35	5.23219
6.36	5.21936
6.37	5.22331
6.38	5.22462
6.39	5.21476
6.4	5.21508
6.41	5.21804
6.42	5.22429
6.43	5.21739
6.44	5.21147
6.45	5.20522
6.46	5.19666
6.47	5.19436
6.48	5.18975
6.49	5.18975
6.5	5.19403
6.51	5.18811
6.52	5.18383
6.53	5.19173
6.54	5.18778
6.55	5.18318
6.56	5.1687
6.57	5.1766
6.58	5.16311
6.59	5.16377
6.6	5.15982
6.61	5.15488
6.62	5.14798
6.63	5.15225
6.64	5.1585
6.65	5.15127
6.66	5.1391
6.67	5.14074
6.68	5.14337
6.69	5.13515
6.7	5.13679
6.71	5.13284
6.72	5.12331
6.73	5.12232
6.74	5.12594
6.75	5.11541
6.76	5.11475
6.77	5.1164
6.78	5.13054
6.79	5.11508
6.8	5.11278
6.81	5.11903
6.82	5.10883
6.83	5.09929
6.84	5.11146
6.85	5.10159
6.86	5.10291
6.87	5.08844
6.88	5.09173
6.89	5.08778
6.9	5.07462
6.91	5.08021
6.92	5.08416
6.93	5.0789
6.94	5.07955
6.95	5.07462
6.96	5.06672
6.97	5.07396
6.98	5.06969
6.99	5.06969
7	5.06475
7.01	5.06278
7.02	5.06212
7.03	5.05751
7.04	5.05949
7.05	5.05422
7.06	5.05291
7.07	5.0483
7.08	5.04304
7.09	5.04172
7.1	5.04238
7.11	5.03054
7.12	5.02297
7.13	5.03021
7.14	5.02725
7.15	5.02166
7.16	5.02034
7.17	5.02626
7.18	5.01837
7.19	5.00751
7.2	5.01903
7.21	5.0131
7.22	5.01212
7.23	5.01376
7.24	5.01278
7.25	5.00455
7.26	5.00356
7.27	4.99797
7.28	4.99172
7.29	4.98712
7.3	4.99666
7.31	4.98876
7.32	4.9835
7.33	4.98021
7.34	4.99139
7.35	4.98218
7.36	4.98251
7.37	4.97659
7.38	4.98843
7.39	4.97626
7.4	4.97527
7.41	4.97922
7.42	4.97922
7.43	4.95981
7.44	4.97955
7.45	4.96475
7.46	4.96113
7.47	4.95554
7.48	4.96442
7.49	4.96771
7.5	4.95948
7.51	4.96212
7.52	4.94896
7.53	4.95521
7.54	4.96508
7.55	4.94567
7.56	4.9404
7.57	4.94731
7.58	4.94435
7.59	4.94337
7.6	4.9279
7.61	4.92593
7.62	4.93975
7.63	4.93646
7.64	4.93909
7.65	4.92067
7.66	4.92067
7.67	4.91409
7.68	4.92461
7.69	4.9131
7.7	4.91606
7.71	4.91409
7.72	4.91014
7.73	4.89994
7.74	4.90817
7.75	4.91343
7.76	4.90093
7.77	4.89731
7.78	4.90323
7.79	4.89863
7.8	4.89863
7.81	4.9006
7.82	4.88185
7.83	4.90488
7.84	4.89336
7.85	4.89402
7.86	4.88382
7.87	4.88711
7.88	4.88415
7.89	4.8881
7.9	4.88317
7.91	4.88514
7.92	4.87231
7.93	4.88152
7.94	4.88317
7.95	4.87099
7.96	4.87132
7.97	4.86902
7.98	4.85553
7.99	4.86902
8	4.87231
8.01	4.86771
8.02	4.86442
8.03	4.85652
8.04	4.86244
8.05	4.86211
8.06	4.85718
8.07	4.84863
8.08	4.84961
8.09	4.8506
8.1	4.85027
8.11	4.8404
8.12	4.84567
8.13	4.84863
8.14	4.83349
8.15	4.83744
8.16	4.83777
8.17	4.83974
8.18	4.83909
8.19	4.84369
8.2	4.83481
8.21	4.83711
8.22	4.82461
8.23	4.82823
8.24	4.8233
8.25	4.82362
8.26	4.81277
8.27	4.82593
8.28	4.8233
8.29	4.81672
8.3	4.80553
8.31	4.80948
8.32	4.80652
8.33	4.80882
8.34	4.80619
8.35	4.79961
8.36	4.80356
8.37	4.80816
8.38	4.80685
8.39	4.78382
8.4	4.79336
8.41	4.80257
8.42	4.80356
8.43	4.7881
8.44	4.78382
8.45	4.78941
8.46	4.78941
8.47	4.79303
8.48	4.77724
8.49	4.79073
8.5	4.77954
8.51	4.78152
8.52	4.77527
8.53	4.76277
8.54	4.77625
8.55	4.78283
8.56	4.77724
8.57	4.77691
8.58	4.76803
8.59	4.77
8.6	4.76968
8.61	4.77264
8.62	4.77527
8.63	4.76014
8.64	4.76968
8.65	4.76935
8.66	4.76112
8.67	4.75586
8.68	4.76408
8.69	4.75816
8.7	4.745
8.71	4.74204
8.72	4.75783
8.73	4.75125
8.74	4.74533
8.75	4.75487
8.76	4.7404
8.77	4.75323
8.78	4.74369
8.79	4.74764
8.8	4.74106
8.81	4.74599
8.82	4.745
8.83	4.73842
8.84	4.74435
8.85	4.74139
8.86	4.73875
8.87	4.73152
8.88	4.71573
8.89	4.71902
8.9	4.73185
8.91	4.7256
8.92	4.73546
8.93	4.72954
8.94	4.70849
8.95	4.72921
8.96	4.72099
8.97	4.73086
8.98	4.71375
8.99	4.7154
9	4.71046
9.01	4.7052
9.02	4.72625
9.03	4.7177
9.04	4.72099
9.05	4.71342
9.06	4.70652
9.07	4.70619
9.08	4.70882
9.09	4.7052
9.1	4.70388
9.11	4.69994
9.12	4.70652
9.13	4.70915
9.14	4.69731
9.15	4.70454
9.16	4.70059
9.17	4.69994
9.18	4.69599
9.19	4.69073
9.2	4.69237
9.21	4.695
9.22	4.69138
9.23	4.69467
9.24	4.69698
9.25	4.69533
9.26	4.6848
9.27	4.68513
9.28	4.68086
9.29	4.67132
9.3	4.6802
9.31	4.6802
9.32	4.67757
9.33	4.67855
9.34	4.67855
9.35	4.67428
9.36	4.66934
9.37	4.67296
9.38	4.6779
9.39	4.67428
9.4	4.66737
9.41	4.66737
9.42	4.67625
9.43	4.66967
9.44	4.67
9.45	4.67888
9.46	4.67296
9.47	4.65619
9.48	4.66441
9.49	4.66967
9.5	4.6654
9.51	4.66211
9.52	4.66145
9.53	4.64336
9.54	4.65454
9.55	4.66013
9.56	4.65191
9.57	4.65783
9.58	4.64895
9.59	4.65257
9.6	4.65257
9.61	4.6575
9.62	4.65322
9.63	4.64204
9.64	4.64566
9.65	4.65059
9.66	4.64862
9.67	4.64401
9.68	4.65092
9.69	4.64434
9.7	4.62724
9.71	4.63513
9.72	4.64763
9.73	4.6348
9.74	4.6302
9.75	4.63447
9.76	4.63283
9.77	4.63711
9.78	4.63513
9.79	4.63382
9.8	4.62724
9.81	4.62625
9.82	4.6279
9.83	4.63809
9.84	4.62822
9.85	4.62855
9.86	4.62493
9.87	4.63842
9.88	4.63086
9.89	4.63217
9.9	4.61967
9.91	4.61539
9.92	4.63217
9.93	4.63118
9.94	4.62296
9.95	4.62132
9.96	4.62625
9.97	4.62197
9.98	4.61638
9.99	4.62197
10	4.63151
10.01	4.62164
10.02	4.61572
10.03	4.62625
10.04	4.61704
10.05	4.6098
10.06	4.61375
10.07	4.60421
10.08	4.61342
10.09	4.61276
10.1	4.61112
10.11	4.61046
10.12	4.61474
10.13	4.61803
10.14	4.61211
10.15	4.60783
10.16	4.61441
10.17	4.60158
10.18	4.60388
10.19	4.60421
10.2	4.60224
10.21	4.60684
10.22	4.60487
10.23	4.59829
10.24	4.59335
10.25	4.59533
10.26	4.60355
10.27	4.60454
10.28	4.59829
10.29	4.59796
10.3	4.5848
10.31	4.58875
10.32	4.59204
10.33	4.57987
10.34	4.58283
10.35	4.58316
10.36	4.57724
10.37	4.58349
10.38	4.56967
10.39	4.58184
10.4	4.58414
10.41	4.58447
10.42	4.58217
10.43	4.58184
10.44	4.59007
10.45	4.58776
10.46	4.58184
10.47	4.57789
10.48	4.57559
10.49	4.58645
10.5	4.58645
10.51	4.57822
10.52	4.56868
10.53	4.57033
10.54	4.57625
10.55	4.57855
10.56	4.57954
10.57	4.57033
10.58	4.56835
10.59	4.56704
10.6	4.56375
10.61	4.56506
10.62	4.56177
10.63	4.55947
10.64	4.56309
10.65	4.56046
10.66	4.56013
10.67	4.56638
10.68	4.57362
10.69	4.56375
10.7	4.55223
10.71	4.5496
10.72	4.54598
10.73	4.5598
10.74	4.56506
10.75	4.56474
10.76	4.57099
10.77	4.55717
10.78	4.55125
10.79	4.54105
10.8	4.55322
10.81	4.55125
10.82	4.54796
10.83	4.54927
10.84	4.54796
10.85	4.54072
10.86	4.55454
10.87	4.55059
10.88	4.54993
10.89	4.55125
10.9	4.54237
10.91	4.5473
10.92	4.54434
10.93	4.54434
10.94	4.54993
10.95	4.54006
10.96	4.54566
10.97	4.53842
10.98	4.53677
10.99	4.53447
11	4.53612
11.01	4.53612
11.02	4.53184
11.03	4.53644
11.04	4.53776
11.05	4.5348
11.06	4.53283
11.07	4.52427
11.08	4.52526
11.09	4.52658
11.1	4.53447
11.11	4.52855
11.12	4.52888
11.13	4.52789
11.14	4.53644
11.15	4.53743
11.16	4.53184
11.17	4.53612
11.18	4.5371
11.19	4.53579
11.2	4.53776
11.21	4.52723
11.22	4.53612
11.23	4.5246
11.24	4.52362
11.25	4.53644
11.26	4.52329
11.27	4.53743
11.28	4.53316
11.29	4.52658
11.3	4.53217
11.31	4.53217
11.32	4.53283
11.33	4.52888
11.34	4.53348
11.35	4.52789
11.36	4.52098
11.37	4.51967
11.38	4.52559
11.39	4.51967
11.4	4.52559
11.41	4.52526
11.42	4.52164
11.43	4.51539
11.44	4.51769
11.45	4.51572
11.46	4.51408
11.47	4.51046
11.48	4.51473
11.49	4.51276
11.5	4.50552
11.51	4.51506
11.52	4.51967
11.53	4.50486
11.54	4.50355
11.55	4.5019
11.56	4.50519
11.57	4.49171
11.58	4.50223
11.59	4.50651
11.6	4.50815
11.61	4.5075
11.62	4.49927
11.63	4.49401
11.64	4.50026
11.65	4.50684
11.66	4.50651
11.67	4.49796
11.68	4.49533
11.69	4.49533
11.7	4.49335
11.71	4.50059
11.72	4.49763
11.73	4.50552
11.74	4.49171
11.75	4.49072
11.76	4.49269
11.77	4.49171
11.78	4.49072
11.79	4.48875
11.8	4.48842
11.81	4.495
11.82	4.49401
11.83	4.49236
11.84	4.49861
11.85	4.49434
11.86	4.49368
11.87	4.4973
11.88	4.48447
11.89	4.4871
11.9	4.48973
11.91	4.49105
11.92	4.48282
11.93	4.47888
11.94	4.49467
11.95	4.49138
11.96	4.48184
11.97	4.48644
11.98	4.48743
11.99	4.48315
12	4.48282
12.01	4.48842
12.02	4.4894
12.03	4.48447
12.04	4.47625
12.05	4.4825
12.06	4.47526
12.07	4.46967
12.08	4.47131
12.09	4.47625
12.1	4.46736
12.11	4.47
12.12	4.47361
12.13	4.48348
12.14	4.48513
12.15	4.4894
12.16	4.48085
12.17	4.47131
12.18	4.47197
12.19	4.47164
12.2	4.47164
12.21	4.47427
12.22	4.46605
12.23	4.46934
12.24	4.48118
12.25	4.47493
12.26	4.47855
12.27	4.47361
12.28	4.46638
12.29	4.47065
12.3	4.46736
12.31	4.46046
12.32	4.46572
12.33	4.47822
12.34	4.47329
12.35	4.46901
12.36	4.46407
12.37	4.46375
12.38	4.46868
12.39	4.46473
12.4	4.46769
12.41	4.46934
12.42	4.46046
12.43	4.46342
12.44	4.46111
12.45	4.45815
12.46	4.46342
12.47	4.45421
12.48	4.46539
12.49	4.4598
12.5	4.46342
12.51	4.46473
12.52	4.46243
12.53	4.46078
12.54	4.45914
12.55	4.4598
12.56	4.45684
12.57	4.46078
12.58	4.46342
12.59	4.46342
12.6	4.44894
12.61	4.45026
12.62	4.46276
12.63	4.45124
12.64	4.47032
12.65	4.46473
12.66	4.45585
12.67	4.46111
12.68	4.45322
12.69	4.44697
12.7	4.44828
12.71	4.45651
12.72	4.46506
12.73	4.45881
12.74	4.45388
12.75	4.45453
12.76	4.45388
12.77	4.44532
12.78	4.43578
12.79	4.44828
12.8	4.45717
12.81	4.45947
12.82	4.44631
12.83	4.45092
12.84	4.45355
12.85	4.44894
12.86	4.45026
12.87	4.44697
12.88	4.44236
12.89	4.45124
12.9	4.44927
12.91	4.44236
12.92	4.44499
12.93	4.43874
12.94	4.4371
12.95	4.45322
12.96	4.44763
12.97	4.44368
12.98	4.4496
12.99	4.45223
13	4.44796
13.01	4.44993
13.02	4.44302
13.03	4.44203
13.04	4.44763
13.05	4.44302
13.06	4.43611
13.07	4.44401
13.08	4.43019
13.09	4.44171
13.1	4.4371
13.11	4.44532
13.12	4.45585
13.13	4.44335
13.14	4.44138
13.15	4.43842
13.16	4.4348
13.17	4.44565
13.18	4.43874
13.19	4.43545
13.2	4.43907
13.21	4.43414
13.22	4.44269
13.23	4.43414
13.24	4.43513
13.25	4.43874
13.26	4.42888
13.27	4.43447
13.28	4.42953
13.29	4.4348
13.3	4.42822
13.31	4.43151
13.32	4.44138
13.33	4.43052
13.34	4.43907
13.35	4.43249
13.36	4.43513
13.37	4.43184
13.38	4.4269
13.39	4.43545
13.4	4.43249
13.41	4.42032
13.42	4.42624
13.43	4.43348
13.44	4.44631
13.45	4.44171
13.46	4.42855
13.47	4.42822
13.48	4.4246
13.49	4.43052
13.5	4.43973
13.51	4.43809
13.52	4.42295
13.53	4.41605
13.54	4.4246
13.55	4.43118
13.56	4.43381
13.57	4.43118
13.58	4.43118
13.59	4.41934
13.6	4.4246
13.61	4.44138
13.62	4.43019
13.63	4.42756
13.64	4.42789
13.65	4.41868
13.66	4.43842
13.67	4.43151
13.68	4.43776
13.69	4.42394
13.7	4.42723
13.71	4.43019
13.72	4.43973
13.73	4.42098
13.74	4.42888
13.75	4.42789
13.76	4.42855
13.77	4.42822
13.78	4.43644
13.79	4.43842
13.8	4.43151
13.81	4.42493
13.82	4.42098
13.83	4.43052
13.84	4.42032
13.85	4.41901
13.86	4.42032
13.87	4.41769
13.88	4.42328
13.89	4.41966
13.9	4.41703
13.91	4.41473
13.92	4.41966
13.93	4.42197
13.94	4.41638
13.95	4.41572
13.96	4.41341
13.97	4.40387
13.98	4.40618
13.99	4.41276
14	4.41638
14.01	4.40486
14.02	4.41539
14.03	4.41045
14.04	4.40881
14.05	4.41013
14.06	4.41769
14.07	4.4144
14.08	4.40387
14.09	4.40749
14.1	4.41078
14.11	4.4167
14.12	4.41144
14.13	4.40947
14.14	4.40486
14.15	4.41144
14.16	4.41111
14.17	4.3996
14.18	4.40716
14.19	4.41769
14.2	4.40749
14.21	4.40716
14.22	4.40453
14.23	4.40289
14.24	4.39401
14.25	4.39532
14.26	4.40387
14.27	4.40585
14.28	4.40651
14.29	4.40881
14.3	4.41374
14.31	4.40453
14.32	4.39762
14.33	4.40059
14.34	4.40026
14.35	4.40585
14.36	4.40355
14.37	4.40848
14.38	4.40157
14.39	4.40322
14.4	4.40848
14.41	4.41144
14.42	4.40223
14.43	4.41276
14.44	4.40519
14.45	4.4098
14.46	4.41374
14.47	4.40848
14.48	4.41078
14.49	4.40289
14.5	4.41045
14.51	4.41309
14.52	4.41374
14.53	4.40848
14.54	4.40552
14.55	4.40782
14.56	4.41769
14.57	4.41572
14.58	4.41013
14.59	4.41835
14.6	4.40552
14.61	4.40486
14.62	4.4042
14.63	4.41572
14.64	4.40387
14.65	4.4098
14.66	4.40091
14.67	4.39927
14.68	4.39762
14.69	4.39795
14.7	4.40026
14.71	4.40651
14.72	4.4019
14.73	4.40486
14.74	4.4019
14.75	4.3973
14.76	4.40355
14.77	4.4121
14.78	4.40618
14.79	4.40355
14.8	4.39697
14.81	4.40618
14.82	4.40387
14.83	4.40519
14.84	4.40157
14.85	4.3917
14.86	4.38776
14.87	4.39236
14.88	4.39466
14.89	4.3917
14.9	4.39137
14.91	4.3894
14.92	4.39795
14.93	4.4042
14.94	4.39335
14.95	4.38216
14.96	4.39598
14.97	4.40289
14.98	4.39565
14.99	4.39006
15	4.3894
15.01	4.39072
15.02	4.39434
15.03	4.38808
15.04	4.38973
15.05	4.3871
15.06	4.3746
15.07	4.3894
15.08	4.39105
15.09	4.39401
15.1	4.37394
15.11	4.37789
15.12	4.38151
15.13	4.38249
15.14	4.39401
15.15	4.3848
15.16	4.38973
15.17	4.38315
15.18	4.3848
15.19	4.38216
15.2	4.3871
15.21	4.39203
15.22	4.38381
15.23	4.3848
15.24	4.3917
15.25	4.39137
15.26	4.39927
15.27	4.39368
15.28	4.37361
15.29	4.37098
15.3	4.38677
15.31	4.39302
15.32	4.39236
15.33	4.39006
15.34	4.38085
15.35	4.38381
15.36	4.38348
15.37	4.38348
15.38	4.39039
15.39	4.39466
15.4	4.38052
15.41	4.38578
15.42	4.38249
15.43	4.38743
15.44	4.39039
15.45	4.38743
15.46	4.37624
15.47	4.38348
15.48	4.38743
15.49	4.38907
15.5	4.3848
15.51	4.38578
15.52	4.38019
15.53	4.38348
15.54	4.38907
15.55	4.38841
15.56	4.38085
15.57	4.37558
15.58	4.38118
15.59	4.37986
15.6	4.38183
15.61	4.38118
15.62	4.39072
15.63	4.38874
15.64	4.38874
15.65	4.37131
15.66	4.37723
15.67	4.37789
15.68	4.39006
15.69	4.38447
15.7	4.36572
15.71	4.36604
15.72	4.37855
15.73	4.37558
15.74	4.37756
15.75	4.36769
15.76	4.37953
15.77	4.37262
15.78	4.38052
15.79	4.37526
15.8	4.37657
15.81	4.37295
15.82	4.37032
15.83	4.36933
15.84	4.37526
15.85	4.38118
15.86	4.38085
15.87	4.37953
15.88	4.37262
15.89	4.37591
15.9	4.38085
15.91	4.36637
15.92	4.3644
15.93	4.36604
15.94	4.36933
15.95	4.36374
15.96	4.3746
15.97	4.37855
15.98	4.38808
15.99	4.37657
16	4.36604
16.01	4.37295
16.02	4.3667
16.03	4.35651
16.04	4.36308
16.05	4.36999
16.06	4.37624
16.07	4.37032
16.08	4.37032
16.09	4.37558
16.1	4.35848
16.11	4.37131
16.12	4.3667
16.13	4.36407
16.14	4.36144
16.15	4.37262
16.16	4.36901
16.17	4.36604
16.18	4.35979
16.19	4.36769
16.2	4.36276
16.21	4.36341
16.22	4.36933
16.23	4.36506
16.24	4.35815
16.25	4.36835
16.26	4.3746
16.27	4.36769
16.28	4.36901
16.29	4.36901
16.3	4.36703
16.31	4.3667
16.32	4.3667
16.33	4.36539
16.34	4.35947
16.35	4.37822
16.36	4.37591
16.37	4.37295
16.38	4.37591
16.39	4.37887
16.4	4.35815
16.41	4.36933
16.42	4.36341
16.43	4.36539
16.44	4.36868
16.45	4.36933
16.46	4.37032
16.47	4.35914
16.48	4.35979
16.49	4.36539
16.5	4.36111
16.51	4.36604
16.52	4.36966
16.53	4.35979
16.54	4.36539
16.55	4.36769
16.56	4.36572
16.57	4.36473
16.58	4.37032
16.59	4.37164
16.6	4.36868
16.61	4.36506
16.62	4.36111
16.63	4.36637
16.64	4.36144
16.65	4.34598
16.66	4.35848
16.67	4.36868
16.68	4.35848
16.69	4.36012
16.7	4.36901
16.71	4.36243
16.72	4.36243
16.73	4.36901
16.74	4.36243
16.75	4.36177
16.76	4.3644
16.77	4.37131
16.78	4.36539
16.79	4.36539
16.8	4.35585
16.81	4.35618
16.82	4.36539
16.83	4.36604
16.84	4.36276
16.85	4.36539
16.86	4.37295
16.87	4.3519
16.88	4.35618
16.89	4.36341
16.9	4.35453
16.91	4.36276
16.92	4.35091
16.93	4.35618
16.94	4.37394
16.95	4.36539
16.96	4.35519
16.97	4.3519
16.98	4.35486
16.99	4.35552
17	4.35651
17.01	4.35716
17.02	4.3519
17.03	4.35618
17.04	4.35124
17.05	4.34762
17.06	4.35683
17.07	4.36407
17.08	4.36539
17.09	4.3496
17.1	4.35223
17.11	4.35157
17.12	4.34368
17.13	4.35683
17.14	4.36341
17.15	4.35091
17.16	4.36966
17.17	4.3542
17.18	4.34532
17.19	4.3519
17.2	4.35453
17.21	4.3542
17.22	4.34697
17.23	4.35289
17.24	4.34269
17.25	4.34927
17.26	4.36078
17.27	4.35058
17.28	4.35289
17.29	4.35289
17.3	4.34664
17.31	4.36111
17.32	4.35256
17.33	4.34795
17.34	4.34631
17.35	4.34894
17.36	4.35058
17.37	4.34302
17.38	4.35256
17.39	4.35322
17.4	4.35157
17.41	4.35256
17.42	4.34762
17.43	4.35289
17.44	4.36177
17.45	4.36308
17.46	4.35651
17.47	4.34532
17.48	4.35058
17.49	4.33973
17.5	4.34729
17.51	4.36243
17.52	4.35124
17.53	4.35453
17.54	4.35124
17.55	4.35223
17.56	4.35782
17.57	4.34894
17.58	4.3496
17.59	4.34302
17.6	4.35091
17.61	4.35618
17.62	4.35848
17.63	4.35223
17.64	4.35651
17.65	4.35815
17.66	4.35025
17.67	4.33644
17.68	4.34631
17.69	4.34795
17.7	4.34697
17.71	4.36604
17.72	4.36276
17.73	4.35486
17.74	4.3519
17.75	4.34565
17.76	4.35947
17.77	4.35354
17.78	4.3394
17.79	4.34104
17.8	4.34269
17.81	4.35749
17.82	4.35157
17.83	4.34861
17.84	4.35519
17.85	4.35058
17.86	4.34828
17.87	4.35354
17.88	4.34729
17.89	4.34104
17.9	4.35124
17.91	4.34565
17.92	4.35091
17.93	4.35618
17.94	4.34828
17.95	4.34137
17.96	4.34565
17.97	4.35058
17.98	4.34072
17.99	4.33973
18	4.34203
18.01	4.34697
18.02	4.35651
18.03	4.34993
18.04	4.34729
18.05	4.34697
18.06	4.33677
18.07	4.34762
18.08	4.34203
18.09	4.3394
18.1	4.344
18.11	4.34598
18.12	4.34433
18.13	4.34466
18.14	4.34762
18.15	4.34335
18.16	4.34104
18.17	4.3417
18.18	4.33677
18.19	4.34236
18.2	4.34072
18.21	4.33874
18.22	4.34598
18.23	4.35025
18.24	4.34697
18.25	4.34368
18.26	4.34137
18.27	4.34894
18.28	4.34302
18.29	4.33446
18.3	4.33052
18.31	4.34368
18.32	4.33841
18.33	4.34466
18.34	4.33315
18.35	4.34269
18.36	4.34269
18.37	4.33414
18.38	4.33282
18.39	4.3496
18.4	4.34137
18.41	4.33841
18.42	4.34006
18.43	4.33512
18.44	4.33644
18.45	4.33611
18.46	4.34203
18.47	4.3315
18.48	4.3394
18.49	4.33479
18.5	4.3417
18.51	4.33677
18.52	4.32558
18.53	4.33578
18.54	4.33644
18.55	4.33414
18.56	4.34368
18.57	4.34466
18.58	4.33775
18.59	4.33973
18.6	4.33973
18.61	4.33874
18.62	4.33315
18.63	4.33545
18.64	4.32361
18.65	4.3394
18.66	4.34335
18.67	4.34269
18.68	4.33874
18.69	4.33249
18.7	4.32394
18.71	4.33578
18.72	4.33019
18.73	4.33512
18.74	4.35289
18.75	4.35322
18.76	4.34729
18.77	4.34565
18.78	4.34302
18.79	4.34532
18.8	4.33282
18.81	4.34269
18.82	4.33545
18.83	4.34631
18.84	4.33808
18.85	4.33973
18.86	4.33315
18.87	4.33348
18.88	4.32723
18.89	4.3394
18.9	4.33578
18.91	4.33841
18.92	4.33775
18.93	4.33512
18.94	4.34598
18.95	4.34664
18.96	4.33644
18.97	4.34039
18.98	4.34006
18.99	4.33907
19	4.33118
19.01	4.32493
19.02	4.33973
19.03	4.33677
19.04	4.33841
19.05	4.3394
19.06	4.33907
19.07	4.33118
19.08	4.3292
19.09	4.34828
19.1	4.34894
19.11	4.33446
19.12	4.33479
19.13	4.33611
19.14	4.3269
19.15	4.33578
19.16	4.33611
19.17	4.33052
19.18	4.32821
19.19	4.33348
19.2	4.32821
19.21	4.32098
19.22	4.33118
19.23	4.34039
19.24	4.32328
19.25	4.32821
19.26	4.33479
19.27	4.3292
19.28	4.33512
19.29	4.33282
19.3	4.33019
19.31	4.33183
19.32	4.33315
19.33	4.33052
19.34	4.33907
19.35	4.344
19.36	4.33743
19.37	4.34104
19.38	4.33907
19.39	4.33907
19.4	4.33052
19.41	4.34039
19.42	4.34137
19.43	4.33611
19.44	4.34335
19.45	4.33775
19.46	4.33118
19.47	4.34236
19.48	4.33118
19.49	4.3315
19.5	4.33348
19.51	4.34433
19.52	4.34927
19.53	4.33414
19.54	4.35124
19.55	4.33611
19.56	4.33414
19.57	4.33183
19.58	4.34137
19.59	4.33907
19.6	4.34335
19.61	4.34104
19.62	4.33183
19.63	4.34006
19.64	4.33973
19.65	4.33907
19.66	4.3371
19.67	4.3315
19.68	4.33545
19.69	4.34927
19.7	4.32953
19.71	4.32789
19.72	4.33183
19.73	4.34137
19.74	4.33874
19.75	4.33611
19.76	4.32986
19.77	4.33052
19.78	4.33216
19.79	4.32723
19.8	4.33775
19.81	4.33677
19.82	4.33611
19.83	4.32558
19.84	4.32493
19.85	4.33183
19.86	4.33118
19.87	4.32756
19.88	4.32493
19.89	4.32591
19.9	4.319
19.91	4.32394
19.92	4.32131
19.93	4.33052
19.94	4.32789
19.95	4.31966
19.96	4.31539
19.97	4.32098
19.98	4.32262
19.99	4.31736
20	4.32756
20.01	4.32361
20.02	4.31736
20.03	4.32657
20.04	4.33216
20.05	4.32887
20.06	4.31769
20.07	4.3167
20.08	4.31999
20.09	4.32558
20.1	4.32624
20.11	4.33085
20.12	4.31933
20.13	4.31802
20.14	4.31539
20.15	4.33019
20.16	4.32131
20.17	4.32854
20.18	4.32032
20.19	4.33052
20.2	4.32262
20.21	4.31144
20.22	4.32394
20.23	4.33019
20.24	4.3269
20.25	4.31769
20.26	4.31769
20.27	4.32032
20.28	4.32887
20.29	4.32756
20.3	4.3246
20.31	4.32196
20.32	4.32098
20.33	4.32657
20.34	4.32854
20.35	4.33249
20.36	4.33282
20.37	4.32821
20.38	4.32789
20.39	4.32887
20.4	4.32065
20.41	4.32789
20.42	4.32624
20.43	4.31867
20.44	4.31703
20.45	4.32032
20.46	4.31867
20.47	4.31867
20.48	4.32986
20.49	4.33118
20.5	4.3246
20.51	4.31769
20.52	4.32789
20.53	4.32525
20.54	4.32032
20.55	4.32558
20.56	4.32131
20.57	4.32887
20.58	4.32953
20.59	4.32164
20.6	4.32196
20.61	4.31769
20.62	4.31637
20.63	4.31867
20.64	4.31867
20.65	4.3167
20.66	4.31802
20.67	4.31835
20.68	4.32525
20.69	4.32525
20.7	4.30782
20.71	4.30683
20.72	4.31703
20.73	4.31835
20.74	4.32821
20.75	4.32196
20.76	4.31802
20.77	4.3121
20.78	4.31012
20.79	4.31604
20.8	4.31802
20.81	4.3121
20.82	4.31539
20.83	4.31802
20.84	4.33907
20.85	4.33085
20.86	4.32361
20.87	4.32098
20.88	4.31769
20.89	4.32196
20.9	4.32394
20.91	4.32887
20.92	4.32361
20.93	4.31999
20.94	4.31407
20.95	4.33249
20.96	4.31407
20.97	4.32756
20.98	4.3292
20.99	4.33545
21	4.33414
21.01	4.32953
21.02	4.32262
21.03	4.32262
21.04	4.3315
21.05	4.3167
21.06	4.31703
21.07	4.32394
21.08	4.3269
21.09	4.33019
21.1	4.32624
21.11	4.31835
21.12	4.31835
21.13	4.32361
21.14	4.31835
21.15	4.31473
21.16	4.31539
21.17	4.31177
21.18	4.32032
21.19	4.32164
21.2	4.31506
21.21	4.32229
21.22	4.31802
21.23	4.33479
21.24	4.31144
21.25	4.30716
21.26	4.31769
21.27	4.31802
21.28	4.31539
21.29	4.31275
21.3	4.31374
21.31	4.31867
21.32	4.3144
21.33	4.32262
21.34	4.3121
21.35	4.31802
21.36	4.31407
21.37	4.32295
21.38	4.3144
21.39	4.32032
21.4	4.3065
21.41	4.3121
21.42	4.32262
21.43	4.33249
21.44	4.31604
21.45	4.30552
21.46	4.31177
21.47	4.30782
21.48	4.31374
21.49	4.31242
21.5	4.31966
21.51	4.31473
21.52	4.31341
21.53	4.32262
21.54	4.31506
21.55	4.31242
21.56	4.31867
21.57	4.31144
21.58	4.31539
21.59	4.31242
21.6	4.31045
21.61	4.31769
21.62	4.3246
21.63	4.3065
21.64	4.32131
21.65	4.3167
21.66	4.32887
21.67	4.31703
21.68	4.31867
21.69	4.31604
21.7	4.31407
21.71	4.3121
21.72	4.30946
21.73	4.32032
21.74	4.31999
21.75	4.31177
21.76	4.31867
21.77	4.31506
21.78	4.31078
21.79	4.31407
21.8	4.30585
21.81	4.3144
21.82	4.3121
21.83	4.30453
21.84	4.30946
21.85	4.30288
21.86	4.30815
21.87	4.30223
21.88	4.3065
21.89	4.31703
21.9	4.31012
21.91	4.31111
21.92	4.3144
21.93	4.30914
21.94	4.31177
21.95	4.3144
21.96	4.30782
21.97	4.30683
21.98	4.31144
21.99	4.31012
22	4.31604
22.01	4.30848
22.02	4.30914
22.03	4.31769
22.04	4.32065
22.05	4.32164
22.06	4.31374
22.07	4.30848
22.08	4.31242
22.09	4.30716
22.1	4.31637
22.11	4.32196
22.12	4.33019
22.13	4.32032
22.14	4.32624
22.15	4.319
22.16	4.319
22.17	4.31736
22.18	4.32525
22.19	4.32164
22.2	4.32196
22.21	4.32032
22.22	4.30387
22.23	4.32164
22.24	4.31242
22.25	4.30716
22.26	4.32098
22.27	4.31802
22.28	4.32558
22.29	4.31966
22.3	4.31571
22.31	4.3144
22.32	4.319
22.33	4.32361
22.34	4.31736
22.35	4.3167
22.36	4.31308
22.37	4.30683
22.38	4.31933
22.39	4.31078
22.4	4.30979
22.41	4.31144
22.42	4.32065
22.43	4.31144
22.44	4.30716
22.45	4.31144
22.46	4.31242
22.47	4.31637
22.48	4.31308
22.49	4.31506
22.5	4.31275
22.51	4.31604
22.52	4.31539
22.53	4.30946
22.54	4.30881
22.55	4.31341
22.56	4.30716
22.57	4.30552
22.58	4.30716
22.59	4.30848
22.6	4.3144
22.61	4.30585
22.62	4.2996
22.63	4.30552
22.64	4.31111
22.65	4.31374
22.66	4.30585
22.67	4.30321
22.68	4.30881
22.69	4.30585
22.7	4.30321
22.71	4.30124
22.72	4.30815
22.73	4.31045
22.74	4.3042
22.75	4.30683
22.76	4.30979
22.77	4.30914
22.78	4.30124
22.79	4.30124
22.8	4.30288
22.81	4.30782
22.82	4.30321
22.83	4.30486
22.84	4.30453
22.85	4.30091
22.86	4.30749
22.87	4.30256
22.88	4.31275
22.89	4.30716
22.9	4.30914
22.91	4.30946
22.92	4.30881
22.93	4.30946
22.94	4.29598
22.95	4.30519
22.96	4.30683
22.97	4.30749
22.98	4.31177
22.99	4.3065
23	4.30223
23.01	4.319
23.02	4.30782
23.03	4.3042
23.04	4.29696
23.05	4.30749
23.06	4.30387
23.07	4.31242
23.08	4.3065
23.09	4.30552
23.1	4.30519
23.11	4.3042
23.12	4.30453
23.13	4.29729
23.14	4.30288
23.15	4.29302
23.16	4.29663
23.17	4.3042
23.18	4.30617
23.19	4.30486
23.2	4.30486
23.21	4.30815
23.22	4.29861
23.23	4.29861
23.24	4.30848
23.25	4.31966
23.26	4.30321
23.27	4.30519
23.28	4.30914
23.29	4.31045
23.3	4.31407
23.31	4.31571
23.32	4.31604
23.33	4.31933
23.34	4.30716
23.35	4.29927
23.36	4.31341
23.37	4.32262
23.38	4.31867
23.39	4.31045
23.4	4.30749
23.41	4.3042
23.42	4.30387
23.43	4.31144
23.44	4.3042
23.45	4.30321
23.46	4.30387
23.47	4.29532
23.48	4.30157
23.49	4.30585
23.5	4.30124
23.51	4.30321
23.52	4.30157
23.53	4.30288
23.54	4.29795
23.55	4.29499
23.56	4.29598
23.57	4.29663
23.58	4.29927
23.59	4.29335
23.6	4.29302
23.61	4.29663
23.62	4.29433
23.63	4.29861
23.64	4.28644
23.65	4.30124
23.66	4.30815
23.67	4.30025
23.68	4.30025
23.69	4.30025
23.7	4.30091
23.71	4.30519
23.72	4.30091
23.73	4.29236
23.74	4.29203
23.75	4.29236
23.76	4.29565
23.77	4.29729
23.78	4.30848
23.79	4.29367
23.8	4.29828
23.81	4.29729
23.82	4.30552
23.83	4.30157
23.84	4.29137
23.85	4.30157
23.86	4.30354
23.87	4.30157
23.88	4.29631
23.89	4.29795
23.9	4.30157
23.91	4.3019
23.92	4.29795
23.93	4.29071
23.94	4.29861
23.95	4.29663
23.96	4.28775
23.97	4.29367
23.98	4.29992
23.99	4.29663
24	4.29367
24.01	4.30453
24.02	4.29828
24.03	4.29367
24.04	4.29236
24.05	4.30617
24.06	4.30387
24.07	4.29499
24.08	4.29433
24.09	4.30321
24.1	4.29894
24.11	4.28841
24.12	4.29499
24.13	4.29466
24.14	4.29927
24.15	4.29598
24.16	4.30354
24.17	4.30256
24.18	4.29598
24.19	4.29367
24.2	4.30354
24.21	4.30223
24.22	4.30585
24.23	4.29367
24.24	4.294
24.25	4.29302
24.26	4.30124
24.27	4.29631
24.28	4.3019
24.29	4.29466
24.3	4.29367
24.31	4.28611
24.32	4.29762
24.33	4.294
24.34	4.29762
24.35	4.30749
24.36	4.2894
24.37	4.29663
24.38	4.294
24.39	4.30058
24.4	4.29466
24.41	4.28808
24.42	4.294
24.43	4.29367
24.44	4.29598
24.45	4.28874
24.46	4.28249
24.47	4.28775
24.48	4.28545
24.49	4.29466
24.5	4.30387
24.51	4.29992
24.52	4.29795
24.53	4.29729
24.54	4.294
24.55	4.29499
24.56	4.28907
24.57	4.29499
24.58	4.29335
24.59	4.29663
24.6	4.29236
24.61	4.29071
24.62	4.29466
24.63	4.28545
24.64	4.29236
24.65	4.30091
24.66	4.2894
24.67	4.28545
24.68	4.29433
24.69	4.29466
24.7	4.28874
24.71	4.29269
24.72	4.29663
24.73	4.29335
24.74	4.294
24.75	4.29696
24.76	4.29532
24.77	4.29499
24.78	4.30387
24.79	4.30223
24.8	4.2917
24.81	4.29631
24.82	4.29828
24.83	4.28907
24.84	4.28775
24.85	4.29269
24.86	4.29466
24.87	4.29861
24.88	4.29795
24.89	4.28907
24.9	4.30124
24.91	4.3019
24.92	4.29894
24.93	4.29762
24.94	4.29302
24.95	4.294
24.96	4.29499
24.97	4.28907
24.98	4.29367
24.99	4.29269
25	4.29335
25.01	4.28315
25.02	4.28973
25.03	4.30354
25.04	4.29729
25.05	4.29992
25.06	4.29696
25.07	4.29861
25.08	4.29269
25.09	4.29696
25.1	4.30387
25.11	4.28841
25.12	4.29663
25.13	4.294
25.14	4.29499
25.15	4.30552
25.16	4.29466
25.17	4.30058
25.18	4.30617
25.19	4.29631
25.2	4.29038
25.21	4.29236
25.22	4.29762
25.23	4.30091
25.24	4.29663
25.25	4.28874
25.26	4.294
25.27	4.29598
25.28	4.29894
25.29	4.3042
25.3	4.30321
25.31	4.29466
25.32	4.31111
25.33	4.3042
25.34	4.29828
25.35	4.29367
25.36	4.28775
25.37	4.28578
25.38	4.29466
25.39	4.29762
25.4	4.28644
25.41	4.28841
25.42	4.29696
25.43	4.2996
25.44	4.29795
25.45	4.30256
25.46	4.30354
25.47	4.29927
25.48	4.29302
25.49	4.294
25.5	4.29137
25.51	4.29203
25.52	4.29367
25.53	4.29663
25.54	4.29433
25.55	4.27328
25.56	4.27953
25.57	4.28907
25.58	4.2996
25.59	4.294
25.6	4.28808
25.61	4.29071
25.62	4.28841
25.63	4.29927
25.64	4.29828
25.65	4.2996
25.66	4.30124
25.67	4.28874
25.68	4.29137
25.69	4.29631
25.7	4.29302
25.71	4.29302
25.72	4.2894
25.73	4.28249
25.74	4.28019
25.75	4.2917
25.76	4.28512
25.77	4.28907
25.78	4.28973
25.79	4.29466
25.8	4.28578
25.81	4.28677
25.82	4.29236
25.83	4.294
25.84	4.27854
25.85	4.2894
25.86	4.28907
25.87	4.28611
25.88	4.2917
25.89	4.28709
25.9	4.28742
25.91	4.29104
25.92	4.294
25.93	4.28709
25.94	4.28709
25.95	4.28216
25.96	4.28446
25.97	4.29104
25.98	4.29762
25.99	4.29828
26	4.28841
26.01	4.294
26.02	4.28709
26.03	4.28381
26.04	4.29071
26.05	4.30025
26.06	4.29828
26.07	4.29927
26.08	4.29795
26.09	4.29006
26.1	4.29433
26.11	4.29663
26.12	4.28775
26.13	4.294
26.14	4.28677
26.15	4.28249
26.16	4.294
26.17	4.29236
26.18	4.30354
26.19	4.29203
26.2	4.29565
26.21	4.2996
26.22	4.29137
26.23	4.28413
26.24	4.29729
26.25	4.2894
26.26	4.28084
26.27	4.28742
26.28	4.29203
26.29	4.28677
26.3	4.28052
26.31	4.28216
26.32	4.28874
26.33	4.28611
26.34	4.29729
26.35	4.28611
26.36	4.29433
26.37	4.29335
26.38	4.30223
26.39	4.28611
26.4	4.28677
26.41	4.29203
26.42	4.29795
26.43	4.30157
26.44	4.29335
26.45	4.28973
26.46	4.28841
26.47	4.30321
26.48	4.29006
26.49	4.29499
26.5	4.30486
26.51	4.29269
26.52	4.29631
26.53	4.29696
26.54	4.29071
26.55	4.28512
26.56	4.28808
26.57	4.30058
26.58	4.28611
26.59	4.29203
26.6	4.28578
26.61	4.29433
26.62	4.28874
26.63	4.29071
26.64	4.30256
26.65	4.29795
26.66	4.29696
26.67	4.29762
26.68	4.30157
26.69	4.29236
26.7	4.29532
26.71	4.29367
26.72	4.30552
26.73	4.29565
26.74	4.29631
26.75	4.30025
26.76	4.29696
26.77	4.28907
26.78	4.29335
26.79	4.29631
26.8	4.29302
26.81	4.28315
26.82	4.28841
26.83	4.29137
26.84	4.29499
26.85	4.29104
26.86	4.29466
26.87	4.29631
26.88	4.29565
26.89	4.29565
26.9	4.28446
26.91	4.29038
26.92	4.28512
26.93	4.27821
26.94	4.28874
26.95	4.27723
26.96	4.28677
26.97	4.29302
26.98	4.28611
26.99	4.28216
27	4.28578
27.01	4.28677
27.02	4.28545
27.03	4.28479
27.04	4.27723
27.05	4.29203
27.06	4.28512
27.07	4.28808
27.08	4.28512
27.09	4.2815
27.1	4.27854
27.11	4.26999
27.12	4.27558
27.13	4.2815
27.14	4.28742
27.15	4.27986
27.16	4.28052
27.17	4.28052
27.18	4.28183
27.19	4.29203
27.2	4.28183
27.21	4.27788
27.22	4.28052
27.23	4.27953
27.24	4.27788
27.25	4.27953
27.26	4.28315
27.27	4.28348
27.28	4.28841
27.29	4.2792
27.3	4.28808
27.31	4.28249
27.32	4.2769
27.33	4.28709
27.34	4.28315
27.35	4.28677
27.36	4.27295
27.37	4.27196
27.38	4.28512
27.39	4.28249
27.4	4.27196
27.41	4.28084
27.42	4.29532
27.43	4.28545
27.44	4.28216
27.45	4.27953
27.46	4.2713
27.47	4.28183
27.48	4.28841
27.49	4.28282
27.5	4.27032
27.51	4.26999
27.52	4.27854
27.53	4.27887
27.54	4.27986
27.55	4.27986
27.56	4.27591
27.57	4.28479
27.58	4.28249
27.59	4.27098
27.6	4.28117
27.61	4.27821
27.62	4.28512
27.63	4.28677
27.64	4.28216
27.65	4.28413
27.66	4.27986
27.67	4.27065
27.68	4.27492
27.69	4.27986
27.7	4.27459
27.71	4.28084
27.72	4.27821
27.73	4.26933
27.74	4.28282
27.75	4.27657
27.76	4.27821
27.77	4.28117
27.78	4.27525
27.79	4.27163
27.8	4.28677
27.81	4.27459
27.82	4.27854
27.83	4.26999
27.84	4.27723
27.85	4.27427
27.86	4.26933
27.87	4.26703
27.88	4.27558
27.89	4.28117
27.9	4.27098
27.91	4.27986
27.92	4.269
27.93	4.27328
27.94	4.2713
27.95	4.27624
27.96	4.2792
27.97	4.27756
27.98	4.269
27.99	4.26834
28	4.26966
28.01	4.2644
28.02	4.2769
28.03	4.27196
28.04	4.27558
28.05	4.27657
28.06	4.27854
28.07	4.2713
28.08	4.2713
28.09	4.28183
28.1	4.27459
28.11	4.269
28.12	4.2792
28.13	4.27854
28.14	4.2792
28.15	4.27492
28.16	4.26999
28.17	4.2713
28.18	4.2769
28.19	4.27821
28.2	4.27624
28.21	4.26571
28.22	4.269
28.23	4.2792
28.24	4.27854
28.25	4.27525
28.26	4.27723
28.27	4.26637
28.28	4.26012
28.29	4.26999
28.3	4.27065
28.31	4.27262
28.32	4.26769
28.33	4.26505
28.34	4.26999
28.35	4.27427
28.36	4.27492
28.37	4.27788
28.38	4.27328
28.39	4.27163
28.4	4.27163
28.41	4.26571
28.42	4.26999
28.43	4.26374
28.44	4.27361
28.45	4.2792
28.46	4.26834
28.47	4.27525
28.48	4.27821
28.49	4.27756
28.5	4.27525
28.51	4.27394
28.52	4.27229
28.53	4.28117
28.54	4.26834
28.55	4.27558
28.56	4.27328
28.57	4.27394
28.58	4.27591
28.59	4.26834
28.6	4.26538
28.61	4.27657
28.62	4.27591
28.63	4.27196
28.64	4.27032
28.65	4.27723
28.66	4.27427
28.67	4.27427
28.68	4.27098
28.69	4.27591
28.7	4.27361
28.71	4.26571
28.72	4.26769
28.73	4.26637
28.74	4.26242
28.75	4.26604
28.76	4.27262
28.77	4.26177
28.78	4.2713
28.79	4.2769
28.8	4.27262
28.81	4.269
28.82	4.26834
28.83	4.27394
28.84	4.27459
28.85	4.26933
28.86	4.26834
28.87	4.26144
28.88	4.2588
28.89	4.26144
28.9	4.25716
28.91	4.26111
28.92	4.26966
28.93	4.26571
28.94	4.26637
28.95	4.26473
28.96	4.27328
28.97	4.269
28.98	4.26045
28.99	4.2588
29	4.26341
29.01	4.26209
29.02	4.27098
29.03	4.27854
29.04	4.27394
29.05	4.26933
29.06	4.26736
29.07	4.26275
29.08	4.26505
29.09	4.26571
29.1	4.27065
29.11	4.2667
29.12	4.26802
29.13	4.27295
29.14	4.27262
29.15	4.27459
29.16	4.28216
29.17	4.26341
29.18	4.27492
29.19	4.27887
29.2	4.27196
29.21	4.27854
29.22	4.27953
29.23	4.27295
29.24	4.2667
29.25	4.25913
29.26	4.26802
29.27	4.27098
29.28	4.26571
29.29	4.2667
29.3	4.26703
29.31	4.2644
29.32	4.269
29.33	4.27492
29.34	4.27295
29.35	4.2769
29.36	4.27492
29.37	4.27032
29.38	4.26999
29.39	4.26802
29.4	4.26703
29.41	4.26703
29.42	4.26834
29.43	4.269
29.44	4.27361
29.45	4.26571
29.46	4.269
29.47	4.2769
29.48	4.26966
29.49	4.25683
29.5	4.26933
29.51	4.27065
29.52	4.26177
29.53	4.26703
29.54	4.26209
29.55	4.27098
29.56	4.27558
29.57	4.26242
29.58	4.26177
29.59	4.26045
29.6	4.26538
29.61	4.269
29.62	4.26308
29.63	4.27065
29.64	4.26571
29.65	4.2588
29.66	4.26473
29.67	4.27262
29.68	4.27361
29.69	4.26538
29.7	4.26078
29.71	4.26736
29.72	4.27032
29.73	4.25979
29.74	4.26341
29.75	4.27361
29.76	4.2667
29.77	4.26736
29.78	4.27229
29.79	4.26473
29.8	4.25979
29.81	4.26275
29.82	4.26012
29.83	4.26834
29.84	4.26637
29.85	4.27295
29.86	4.2667
29.87	4.2667
29.88	4.26111
29.89	4.26802
29.9	4.26604
29.91	4.26637
29.92	4.26867
29.93	4.27098
29.94	4.26802
29.95	4.26933
29.96	4.26703
29.97	4.27361
29.98	4.27525
29.99	4.26505
30	4.26933
