"BIO-KINE ASCII FILE"
"_COMMENT"	"MOS-500 Spectrometer"
"_COMMENT"	"Kinetics measurement"
"_COMMENT"	"Y Unit : Volt,  X Unit : s"
"_COMMENT"	"Excitation wavelength : 380 nm"
"_COMMENT"	"Fentes bandwidth =  1 nm"
"_COMMENT"	"HV= 750V"
"_COMMENT"	"Timebase  1 =  .01 s   3001 pts"
"_SFM"	"SFM-400 /S  Advanced mode"
"_SFM"	"Ratio : S1: 2.5, S2: 0, S3: 0, S4: 1"
"_SFM"	"Content : S1: , S2: , S3: , S4:"
"_SFM"	"Concentration : S1: , S2: , S3: , S4:"
"_SFM"	"Total volume : 209 µl  Flow : 3.5 mL/s"
"_SFM"	"Acquisition start :  10 ms before stop"
"_SFM"	"cuve=FC-15, s1=10 ml , s2=10 ml , s3=10 ml , s4=1.9 ml"
"_UNITX"	"s"
"_UNITY"	"Volt"
"_DELTAX"	0
"_DATA"
1e-300	7.06514
0.01	7.59048
0.02	7.66384
0.03	7.61811
0.04	7.63587
0.05	7.63094
0.06	7.63555
0.07	7.64114
0.08	7.64147
0.09	7.66186
0.1	7.64772
0.11	7.65298
0.12	7.65002
0.13	7.65134
0.14	7.65199
0.15	7.64147
0.16	7.63456
0.17	7.63324
0.18	7.64607
0.19	7.64377
0.2	7.65134
0.21	7.64147
0.22	7.63522
0.23	7.60594
0.24	7.62272
0.25	7.60462
0.26	7.60989
0.27	7.63127
0.28	7.60298
0.29	7.60002
0.3	7.59212
0.31	7.57732
0.32	7.60035
0.33	7.59574
0.34	7.57995
0.35	7.58127
0.36	7.56285
0.37	7.57633
0.38	7.57436
0.39	7.55396
0.4	7.55758
0.41	7.55462
0.42	7.55923
0.43	7.54574
0.44	7.51712
0.45	7.50561
0.46	7.53028
0.47	7.52469
0.48	7.52831
0.49	7.50002
0.5	7.501
0.51	7.50561
0.52	7.50692
0.53	7.47863
0.54	7.48127
0.55	7.47699
0.56	7.47205
0.57	7.47567
0.58	7.46252
0.59	7.46449
0.6	7.45133
0.61	7.44673
0.62	7.45001
0.63	7.43159
0.64	7.41449
0.65	7.42567
0.66	7.41811
0.67	7.4089
0.68	7.4158
0.69	7.39672
0.7	7.38488
0.71	7.38982
0.72	7.39672
0.73	7.3737
0.74	7.35166
0.75	7.33554
0.76	7.35199
0.77	7.36021
0.78	7.33685
0.79	7.33949
0.8	7.34278
0.81	7.32995
0.82	7.32468
0.83	7.32041
0.84	7.326
0.85	7.32172
0.86	7.31383
0.87	7.30758
0.88	7.30231
0.89	7.29475
0.9	7.27501
0.91	7.26975
0.92	7.26712
0.93	7.27337
0.94	7.25396
0.95	7.24804
0.96	7.23521
0.97	7.24146
0.98	7.23159
0.99	7.21679
1	7.21843
1.01	7.20396
1.02	7.21646
1.03	7.22073
1.04	7.20757
1.05	7.20659
1.06	7.20363
1.07	7.20001
1.08	7.17731
1.09	7.16876
1.1	7.16448
1.11	7.16053
1.12	7.15198
1.13	7.14211
1.14	7.14277
1.15	7.13816
1.16	7.13356
1.17	7.14145
1.18	7.1158
1.19	7.12172
1.2	7.13159
1.21	7.09441
1.22	7.09376
1.23	7.08816
1.24	7.07665
1.25	7.08027
1.26	7.07764
1.27	7.07468
1.28	7.07303
1.29	7.06283
1.3	7.04606
1.31	7.05066
1.32	7.04671
1.33	7.03849
1.34	7.04277
1.35	7.03619
1.36	7.02599
1.37	7.02369
1.38	7.00921
1.39	7.00461
1.4	7.00198
1.41	7.00231
1.42	6.99145
1.43	6.99869
1.44	6.97402
1.45	6.98487
1.46	6.96842
1.47	6.9727
1.48	6.97533
1.49	6.96612
1.5	6.96415
1.51	6.94375
1.52	6.94178
1.53	6.95099
1.54	6.95296
1.55	6.94408
1.56	6.9329
1.57	6.91546
1.58	6.93323
1.59	6.90888
1.6	6.9
1.61	6.91316
1.62	6.89704
1.63	6.87632
1.64	6.88257
1.65	6.87204
1.66	6.8727
1.67	6.87401
1.68	6.8773
1.69	6.87105
1.7	6.85691
1.71	6.84178
1.72	6.84835
1.73	6.85296
1.74	6.83355
1.75	6.83454
1.76	6.83717
1.77	6.81217
1.78	6.80954
1.79	6.80723
1.8	6.79638
1.81	6.79013
1.82	6.78519
1.83	6.77829
1.84	6.77302
1.85	6.7648
1.86	6.76283
1.87	6.75394
1.88	6.74572
1.89	6.74473
1.9	6.74046
1.91	6.73914
1.92	6.74539
1.93	6.72434
1.94	6.71414
1.95	6.70756
1.96	6.71118
1.97	6.68717
1.98	6.68815
1.99	6.68388
2	6.68947
2.01	6.68519
2.02	6.66743
2.03	6.6717
2.04	6.65624
2.05	6.65427
2.06	6.65559
2.07	6.65526
2.08	6.64309
2.09	6.63157
2.1	6.62466
2.11	6.62137
2.12	6.62236
2.13	6.61545
2.14	6.60328
2.15	6.60986
2.16	6.60098
2.17	6.59341
2.18	6.59243
2.19	6.57828
2.2	6.57269
2.21	6.57631
2.22	6.55822
2.23	6.54308
2.24	6.55032
2.25	6.56545
2.26	6.55657
2.27	6.55032
2.28	6.54736
2.29	6.53716
2.3	6.53058
2.31	6.5217
2.32	6.5069
2.33	6.51183
2.34	6.49769
2.35	6.50624
2.36	6.50065
2.37	6.48025
2.38	6.47959
2.39	6.48256
2.4	6.47302
2.41	6.47762
2.42	6.46117
2.43	6.45624
2.44	6.44966
2.45	6.45657
2.46	6.42236
2.47	6.43124
2.48	6.43551
2.49	6.41183
2.5	6.41446
2.51	6.41249
2.52	6.4069
2.53	6.40755
2.54	6.41578
2.55	6.39966
2.56	6.38157
2.57	6.36939
2.58	6.36643
2.59	6.38551
2.6	6.36512
2.61	6.35525
2.62	6.37005
2.63	6.35262
2.64	6.34702
2.65	6.35788
2.66	6.33781
2.67	6.32367
2.68	6.31413
2.69	6.32104
2.7	6.31216
2.71	6.31808
2.72	6.30919
2.73	6.28683
2.74	6.29801
2.75	6.30656
2.76	6.29308
2.77	6.27992
2.78	6.27762
2.79	6.28551
2.8	6.27663
2.81	6.27433
2.82	6.27071
2.83	6.26577
2.84	6.25952
2.85	6.24834
2.86	6.23222
2.87	6.22301
2.88	6.22531
2.89	6.23847
2.9	6.22794
2.91	6.21051
2.92	6.21446
2.93	6.21149
2.94	6.20985
2.95	6.20689
2.96	6.19505
2.97	6.18584
2.98	6.18353
2.99	6.18913
3	6.18024
3.01	6.17992
3.02	6.16511
3.03	6.16939
3.04	6.1707
3.05	6.15886
3.06	6.14406
3.07	6.15064
3.08	6.14768
3.09	6.12366
3.1	6.12432
3.11	6.14669
3.12	6.12301
3.13	6.11774
3.14	6.10261
3.15	6.10294
3.16	6.11281
3.17	6.11379
3.18	6.09866
3.19	6.07037
3.2	6.08781
3.21	6.08715
3.22	6.05787
3.23	6.07728
3.24	6.06149
3.25	6.05458
3.26	6.05524
3.27	6.06017
3.28	6.04175
3.29	6.04899
3.3	6.03188
3.31	6.03517
3.32	6.03616
3.33	6.0309
3.34	6.0411
3.35	6.02859
3.36	6.01675
3.37	6.01017
3.38	6.00952
3.39	5.99965
3.4	5.99537
3.41	5.98583
3.42	5.99833
3.43	5.99537
3.44	5.97991
3.45	5.96544
3.46	5.96774
3.47	5.9582
3.48	5.9707
3.49	5.95886
3.5	5.95524
3.51	5.94142
3.52	5.94043
3.53	5.93846
3.54	5.93484
3.55	5.91445
3.56	5.92004
3.57	5.91149
3.58	5.91938
3.59	5.91116
3.6	5.91839
3.61	5.91346
3.62	5.90491
3.63	5.88287
3.64	5.86708
3.65	5.85655
3.66	5.84997
3.67	5.87563
3.68	5.87135
3.69	5.86774
3.7	5.86247
3.71	5.83879
3.72	5.84734
3.73	5.84602
3.74	5.84635
3.75	5.84306
3.76	5.8299
3.77	5.8355
3.78	5.83352
3.79	5.81181
3.8	5.8105
3.81	5.81806
3.82	5.8174
3.83	5.81609
3.84	5.79504
3.85	5.81609
3.86	5.79734
3.87	5.79833
3.88	5.79207
3.89	5.77596
3.9	5.76477
3.91	5.76938
3.92	5.76017
3.93	5.76773
3.94	5.75984
3.95	5.75161
3.96	5.74701
3.97	5.7276
3.98	5.73681
3.99	5.73319
4	5.73188
4.01	5.72036
4.02	5.72563
4.03	5.72497
4.04	5.72563
4.05	5.71543
4.06	5.71378
4.07	5.70391
4.08	5.71839
4.09	5.70819
4.1	5.68747
4.11	5.69602
4.12	5.69109
4.13	5.69832
4.14	5.70359
4.15	5.68845
4.16	5.67233
4.17	5.66345
4.18	5.66411
4.19	5.65457
4.2	5.66279
4.21	5.65523
4.22	5.66115
4.23	5.65654
4.24	5.64141
4.25	5.64043
4.26	5.63023
4.27	5.62727
4.28	5.63023
4.29	5.62332
4.3	5.63549
4.31	5.63089
4.32	5.6095
4.33	5.61115
4.34	5.5901
4.35	5.58977
4.36	5.59569
4.37	5.6095
4.38	5.57924
4.39	5.57595
4.4	5.57694
4.41	5.58648
4.42	5.57891
4.43	5.58154
4.44	5.56213
4.45	5.55029
4.46	5.56115
4.47	5.54075
4.48	5.55983
4.49	5.55095
4.5	5.53023
4.51	5.52924
4.52	5.53516
4.53	5.52891
4.54	5.51805
4.55	5.51608
4.56	5.52858
4.57	5.52957
4.58	5.51772
4.59	5.50259
4.6	5.49963
4.61	5.51641
4.62	5.4822
4.63	5.497
4.64	5.50128
4.65	5.50095
4.66	5.49141
4.67	5.48911
4.68	5.48549
4.69	5.47068
4.7	5.47496
4.71	5.45818
4.72	5.4493
4.73	5.45522
4.74	5.45259
4.75	5.45489
4.76	5.46213
4.77	5.45391
4.78	5.44108
4.79	5.45095
4.8	5.44601
4.81	5.4322
4.82	5.42167
4.83	5.43417
4.84	5.41772
4.85	5.41772
4.86	5.42035
4.87	5.40983
4.88	5.41147
4.89	5.40193
4.9	5.40621
4.91	5.39733
4.92	5.39141
4.93	5.36279
4.94	5.39173
4.95	5.372
4.96	5.39568
4.97	5.37331
4.98	5.37726
4.99	5.36443
5	5.37989
5.01	5.36509
5.02	5.35226
5.03	5.38548
5.04	5.36081
5.05	5.35259
5.06	5.34173
5.07	5.32693
5.08	5.33746
5.09	5.33746
5.1	5.33581
5.11	5.32825
5.12	5.32825
5.13	5.34107
5.14	5.31706
5.15	5.3164
5.16	5.32364
5.17	5.31114
5.18	5.30588
5.19	5.30884
5.2	5.29897
5.21	5.30193
5.22	5.30292
5.23	5.28713
5.24	5.2937
5.25	5.26739
5.26	5.27693
5.27	5.28614
5.28	5.27364
5.29	5.2789
5.3	5.26706
5.31	5.26541
5.32	5.26673
5.33	5.26114
5.34	5.24206
5.35	5.25127
5.36	5.24831
5.37	5.26081
5.38	5.24995
5.39	5.24173
5.4	5.25324
5.41	5.24831
5.42	5.22166
5.43	5.23416
5.44	5.24337
5.45	5.22561
5.46	5.2289
5.47	5.22791
5.48	5.21443
5.49	5.21706
5.5	5.2039
5.51	5.20357
5.52	5.20587
5.53	5.19633
5.54	5.19995
5.55	5.2187
5.56	5.19239
5.57	5.20061
5.58	5.20258
5.59	5.18877
5.6	5.19666
5.61	5.19239
5.62	5.16048
5.63	5.16377
5.64	5.15817
5.65	5.16344
5.66	5.14962
5.67	5.14896
5.68	5.16081
5.69	5.15127
5.7	5.14831
5.71	5.14962
5.72	5.15192
5.73	5.14633
5.74	5.14502
5.75	5.14699
5.76	5.1414
5.77	5.1391
5.78	5.1312
5.79	5.12265
5.8	5.12528
5.81	5.12034
5.82	5.11607
5.83	5.12429
5.84	5.1085
5.85	5.10686
5.86	5.10225
5.87	5.10028
5.88	5.10817
5.89	5.10784
5.9	5.09863
5.91	5.08547
5.92	5.08547
5.93	5.08251
5.94	5.08778
5.95	5.09995
5.96	5.09304
5.97	5.0835
5.98	5.08383
5.99	5.06903
6	5.09436
6.01	5.08284
6.02	5.06311
6.03	5.0562
6.04	5.05126
6.05	5.06113
6.06	5.06771
6.07	5.06311
6.08	5.04403
6.09	5.04041
6.1	5.05653
6.11	5.03416
6.12	5.03482
6.13	5.03482
6.14	5.03712
6.15	5.02297
6.16	5.02758
6.17	5.03284
6.18	5.03021
6.19	5.02363
6.2	5.00981
6.21	5.0085
6.22	5.01442
6.23	5.01508
6.24	5.01738
6.25	5.01508
6.26	5.01146
6.27	4.99995
6.28	5.0006
6.29	4.99435
6.3	4.99962
6.31	5.00093
6.32	4.98613
6.33	4.97593
6.34	4.99797
6.35	4.99008
6.36	4.97823
6.37	4.98021
6.38	4.97955
6.39	4.98284
6.4	4.97922
6.41	4.97264
6.42	4.95521
6.43	4.95916
6.44	4.95356
6.45	4.94369
6.46	4.95883
6.47	4.94962
6.48	4.93942
6.49	4.94172
6.5	4.92922
6.51	4.94205
6.52	4.95422
6.53	4.95027
6.54	4.94863
6.55	4.9335
6.56	4.93975
6.57	4.93942
6.58	4.93975
6.59	4.9233
6.6	4.93119
6.61	4.91442
6.62	4.90323
6.63	4.9279
6.64	4.92264
6.65	4.91409
6.66	4.91376
6.67	4.89007
6.68	4.89303
6.69	4.89369
6.7	4.89303
6.71	4.89501
6.72	4.89797
6.73	4.88382
6.74	4.89271
6.75	4.88909
6.76	4.87988
6.77	4.87231
6.78	4.88021
6.79	4.87198
6.8	4.86935
6.81	4.87099
6.82	4.87132
6.83	4.86113
6.84	4.85652
6.85	4.86771
6.86	4.8756
6.87	4.86902
6.88	4.87692
6.89	4.86803
6.9	4.86211
6.91	4.84501
6.92	4.84402
6.93	4.84895
6.94	4.8427
6.95	4.83645
6.96	4.83448
6.97	4.83777
6.98	4.84797
6.99	4.84369
7	4.84895
7.01	4.83448
7.02	4.8358
7.03	4.84863
7.04	4.83448
7.05	4.82724
7.06	4.82691
7.07	4.81244
7.08	4.81178
7.09	4.81639
7.1	4.82297
7.11	4.83316
7.12	4.82297
7.13	4.81474
7.14	4.80882
7.15	4.81145
7.16	4.82066
7.17	4.80783
7.18	4.79501
7.19	4.79632
7.2	4.79533
7.21	4.78579
7.22	4.79435
7.23	4.78514
7.24	4.78283
7.25	4.78711
7.26	4.79797
7.27	4.78612
7.28	4.78185
7.29	4.78119
7.3	4.77198
7.31	4.78481
7.32	4.77362
7.33	4.76968
7.34	4.77362
7.35	4.77
7.36	4.78053
7.37	4.76606
7.38	4.76408
7.39	4.75981
7.4	4.75981
7.41	4.75882
7.42	4.76112
7.43	4.76869
7.44	4.74961
7.45	4.74566
7.46	4.74994
7.47	4.74994
7.48	4.74303
7.49	4.7506
7.5	4.74796
7.51	4.75323
7.52	4.73941
7.53	4.73777
7.54	4.74533
7.55	4.72724
7.56	4.73415
7.57	4.73382
7.58	4.72395
7.59	4.71967
7.6	4.72132
7.61	4.71573
7.62	4.71869
7.63	4.73086
7.64	4.72428
7.65	4.71803
7.66	4.71573
7.67	4.71671
7.68	4.71408
7.69	4.71474
7.7	4.70421
7.71	4.71606
7.72	4.71145
7.73	4.71046
7.74	4.70981
7.75	4.70388
7.76	4.70619
7.77	4.71046
7.78	4.70421
7.79	4.70487
7.8	4.69829
7.81	4.69566
7.82	4.69204
7.83	4.68119
7.84	4.6802
7.85	4.69533
7.86	4.68645
7.87	4.68448
7.88	4.69303
7.89	4.68184
7.9	4.66474
7.91	4.65849
7.92	4.68349
7.93	4.6802
7.94	4.66309
7.95	4.66803
7.96	4.67757
7.97	4.66638
7.98	4.6598
7.99	4.66474
8	4.6598
8.01	4.66441
8.02	4.66145
8.03	4.65388
8.04	4.64862
8.05	4.64697
8.06	4.65026
8.07	4.65092
8.08	4.65257
8.09	4.65322
8.1	4.64467
8.11	4.65125
8.12	4.64204
8.13	4.64697
8.14	4.64138
8.15	4.64204
8.16	4.64796
8.17	4.62855
8.18	4.63908
8.19	4.62395
8.2	4.61836
8.21	4.63546
8.22	4.62428
8.23	4.62691
8.24	4.62757
8.25	4.62526
8.26	4.62724
8.27	4.61572
8.28	4.60717
8.29	4.61638
8.3	4.62066
8.31	4.62132
8.32	4.61474
8.33	4.61079
8.34	4.61507
8.35	4.59566
8.36	4.60388
8.37	4.6075
8.38	4.61539
8.39	4.60947
8.4	4.61079
8.41	4.58875
8.42	4.58612
8.43	4.59434
8.44	4.59566
8.45	4.60454
8.46	4.5973
8.47	4.59007
8.48	4.59862
8.49	4.58974
8.5	4.59039
8.51	4.59138
8.52	4.595
8.53	4.58513
8.54	4.59171
8.55	4.58118
8.56	4.57987
8.57	4.57526
8.58	4.5927
8.59	4.56901
8.6	4.57625
8.61	4.5621
8.62	4.57099
8.63	4.57164
8.64	4.55355
8.65	4.55881
8.66	4.56539
8.67	4.56868
8.68	4.55914
8.69	4.55618
8.7	4.56704
8.71	4.56539
8.72	4.5677
8.73	4.55355
8.74	4.54631
8.75	4.5598
8.76	4.56013
8.77	4.56934
8.78	4.5552
8.79	4.56671
8.8	4.53973
8.81	4.53414
8.82	4.55092
8.83	4.55322
8.84	4.54401
8.85	4.53414
8.86	4.53677
8.87	4.54697
8.88	4.54006
8.89	4.53875
8.9	4.54697
8.91	4.53973
8.92	4.53941
8.93	4.54171
8.94	4.53052
8.95	4.52033
8.96	4.52526
8.97	4.52559
8.98	4.53809
8.99	4.51967
9	4.5325
9.01	4.51737
9.02	4.52394
9.03	4.53875
9.04	4.51704
9.05	4.52592
9.06	4.53052
9.07	4.50651
9.08	4.50848
9.09	4.51177
9.1	4.51408
9.11	4.51868
9.12	4.5325
9.13	4.51276
9.14	4.51375
9.15	4.5098
9.16	4.51572
9.17	4.50947
9.18	4.50684
9.19	4.51473
9.2	4.51605
9.21	4.49894
9.22	4.5075
9.23	4.50388
9.24	4.49993
9.25	4.50585
9.26	4.50421
9.27	4.50914
9.28	4.50815
9.29	4.49039
9.3	4.49763
9.31	4.50256
9.32	4.50059
9.33	4.48315
9.34	4.49664
9.35	4.49269
9.36	4.48282
9.37	4.49302
9.38	4.48282
9.39	4.4746
9.4	4.47789
9.41	4.47855
9.42	4.47625
9.43	4.48677
9.44	4.47888
9.45	4.48348
9.46	4.49006
9.47	4.48348
9.48	4.47888
9.49	4.4746
9.5	4.48118
9.51	4.47921
9.52	4.46506
9.53	4.47164
9.54	4.47361
9.55	4.47394
9.56	4.48019
9.57	4.47263
9.58	4.47559
9.59	4.46835
9.6	4.46111
9.61	4.45815
9.62	4.46506
9.63	4.46111
9.64	4.46078
9.65	4.46473
9.66	4.46276
9.67	4.44927
9.68	4.4598
9.69	4.4575
9.7	4.44269
9.71	4.45355
9.72	4.4598
9.73	4.4598
9.74	4.46605
9.75	4.44763
9.76	4.45519
9.77	4.44894
9.78	4.44565
9.79	4.44203
9.8	4.44335
9.81	4.43842
9.82	4.44828
9.83	4.45289
9.84	4.45585
9.85	4.44138
9.86	4.43118
9.87	4.45519
9.88	4.45585
9.89	4.44434
9.9	4.44302
9.91	4.43874
9.92	4.4496
9.93	4.45026
9.94	4.44499
9.95	4.43414
9.96	4.44269
9.97	4.43447
9.98	4.43052
9.99	4.43381
10	4.44236
10.01	4.43217
10.02	4.4292
10.03	4.42032
10.04	4.42855
10.05	4.43348
10.06	4.43842
10.07	4.41901
10.08	4.42822
10.09	4.41736
10.1	4.41966
10.11	4.42493
10.12	4.41835
10.13	4.42263
10.14	4.41506
10.15	4.41638
10.16	4.42295
10.17	4.42624
10.18	4.4121
10.19	4.42657
10.2	4.41078
10.21	4.4042
10.22	4.40716
10.23	4.41243
10.24	4.41703
10.25	4.41243
10.26	4.41835
10.27	4.40486
10.28	4.41638
10.29	4.41506
10.3	4.4098
10.31	4.39993
10.32	4.39401
10.33	4.40124
10.34	4.4019
10.35	4.4019
10.36	4.39598
10.37	4.39401
10.38	4.40091
10.39	4.40716
10.4	4.39993
10.41	4.40355
10.42	4.39861
10.43	4.39072
10.44	4.39203
10.45	4.38052
10.46	4.38973
10.47	4.39434
10.48	4.40091
10.49	4.3973
10.5	4.38216
10.51	4.38282
10.52	4.38414
10.53	4.37855
10.54	4.38118
10.55	4.39335
10.56	4.39697
10.57	4.40749
10.58	4.38052
10.59	4.36637
10.6	4.37657
10.61	4.37855
10.62	4.37361
10.63	4.38249
10.64	4.37986
10.65	4.38019
10.66	4.3792
10.67	4.37164
10.68	4.3667
10.69	4.38512
10.7	4.38545
10.71	4.38381
10.72	4.36835
10.73	4.37065
10.74	4.36868
10.75	4.36901
10.76	4.37394
10.77	4.36604
10.78	4.36407
10.79	4.36835
10.8	4.37855
10.81	4.38348
10.82	4.38447
10.83	4.37624
10.84	4.36802
10.85	4.36407
10.86	4.37493
10.87	4.36276
10.88	4.36835
10.89	4.36736
10.9	4.36144
10.91	4.36144
10.92	4.35354
10.93	4.36308
10.94	4.36637
10.95	4.36276
10.96	4.34795
10.97	4.35848
10.98	4.35289
10.99	4.34828
11	4.36045
11.01	4.35914
11.02	4.35848
11.03	4.34631
11.04	4.35124
11.05	4.34203
11.06	4.34729
11.07	4.35618
11.08	4.34203
11.09	4.33907
11.1	4.34762
11.11	4.33677
11.12	4.34697
11.13	4.35585
11.14	4.35354
11.15	4.34927
11.16	4.34006
11.17	4.3542
11.18	4.34302
11.19	4.3417
11.2	4.34532
11.21	4.34302
11.22	4.35979
11.23	4.35025
11.24	4.34499
11.25	4.34828
11.26	4.34006
11.27	4.32887
11.28	4.34039
11.29	4.33414
11.3	4.32591
11.31	4.33545
11.32	4.33512
11.33	4.31933
11.34	4.32558
11.35	4.33282
11.36	4.33677
11.37	4.3292
11.38	4.32525
11.39	4.32361
11.4	4.33841
11.41	4.33315
11.42	4.3315
11.43	4.32295
11.44	4.33315
11.45	4.34433
11.46	4.34006
11.47	4.33019
11.48	4.32789
11.49	4.33249
11.5	4.3315
11.51	4.32723
11.52	4.32361
11.53	4.33019
11.54	4.30321
11.55	4.32196
11.56	4.31637
11.57	4.32756
11.58	4.31177
11.59	4.32493
11.6	4.33019
11.61	4.33118
11.62	4.33841
11.63	4.32756
11.64	4.31341
11.65	4.30585
11.66	4.32262
11.67	4.31242
11.68	4.32098
11.69	4.31571
11.7	4.30617
11.71	4.30288
11.72	4.31703
11.73	4.30585
11.74	4.31374
11.75	4.3065
11.76	4.30157
11.77	4.31275
11.78	4.32591
11.79	4.30617
11.8	4.30519
11.81	4.30387
11.82	4.31275
11.83	4.29762
11.84	4.3167
11.85	4.3144
11.86	4.30782
11.87	4.31045
11.88	4.30519
11.89	4.29104
11.9	4.29598
11.91	4.30519
11.92	4.31539
11.93	4.30288
11.94	4.29696
11.95	4.28874
11.96	4.30058
11.97	4.30552
11.98	4.30585
11.99	4.29565
12	4.29828
12.01	4.30453
12.02	4.28413
12.03	4.30486
12.04	4.30025
12.05	4.30288
12.06	4.29335
12.07	4.27986
12.08	4.29203
12.09	4.29104
12.1	4.3019
12.11	4.2917
12.12	4.28117
12.13	4.2894
12.14	4.29433
12.15	4.29729
12.16	4.28742
12.17	4.2917
12.18	4.29598
12.19	4.29894
12.2	4.29433
12.21	4.28315
12.22	4.28611
12.23	4.29433
12.24	4.29335
12.25	4.29367
12.26	4.27756
12.27	4.27525
12.28	4.28742
12.29	4.30223
12.3	4.27953
12.31	4.28117
12.32	4.28742
12.33	4.2792
12.34	4.27854
12.35	4.29499
12.36	4.29038
12.37	4.27657
12.38	4.28709
12.39	4.28973
12.4	4.27986
12.41	4.29006
12.42	4.2917
12.43	4.29006
12.44	4.28644
12.45	4.29071
12.46	4.29236
12.47	4.28216
12.48	4.28315
12.49	4.27854
12.5	4.28282
12.51	4.28973
12.52	4.28282
12.53	4.27657
12.54	4.27328
12.55	4.27492
12.56	4.26966
12.57	4.28216
12.58	4.2713
12.59	4.27459
12.6	4.2815
12.61	4.27756
12.62	4.27821
12.63	4.28052
12.64	4.28019
12.65	4.2713
12.66	4.27196
12.67	4.27196
12.68	4.26966
12.69	4.2713
12.7	4.27032
12.71	4.26736
12.72	4.27163
12.73	4.26571
12.74	4.27624
12.75	4.27624
12.76	4.28249
12.77	4.27328
12.78	4.26604
12.79	4.27492
12.8	4.2769
12.81	4.27756
12.82	4.2713
12.83	4.26505
12.84	4.25486
12.85	4.26177
12.86	4.26538
12.87	4.27262
12.88	4.28775
12.89	4.26999
12.9	4.26571
12.91	4.26374
12.92	4.28019
12.93	4.27032
12.94	4.26933
12.95	4.27163
12.96	4.25124
12.97	4.26736
12.98	4.27821
12.99	4.26209
13	4.26242
13.01	4.25321
13.02	4.24532
13.03	4.24795
13.04	4.2417
13.05	4.24137
13.06	4.25848
13.07	4.27525
13.08	4.26933
13.09	4.23973
13.1	4.25288
13.11	4.23775
13.12	4.25848
13.13	4.25157
13.14	4.24992
13.15	4.25288
13.16	4.244
13.17	4.25091
13.18	4.23545
13.19	4.23578
13.2	4.24367
13.21	4.23841
13.22	4.24334
13.23	4.26045
13.24	4.2519
13.25	4.25453
13.26	4.25913
13.27	4.26242
13.28	4.25486
13.29	4.24433
13.3	4.24861
13.31	4.24729
13.32	4.24466
13.33	4.2417
13.34	4.23413
13.35	4.24038
13.36	4.24894
13.37	4.25584
13.38	4.23315
13.39	4.24663
13.4	4.25058
13.41	4.22821
13.42	4.24367
13.43	4.24466
13.44	4.24663
13.45	4.23512
13.46	4.23907
13.47	4.24301
13.48	4.23973
13.49	4.2542
13.5	4.26242
13.51	4.24926
13.52	4.23742
13.53	4.23808
13.54	4.2542
13.55	4.24071
13.56	4.23446
13.57	4.23282
13.58	4.24137
13.59	4.23775
13.6	4.23808
13.61	4.23479
13.62	4.23808
13.63	4.24269
13.64	4.24334
13.65	4.24696
13.66	4.23479
13.67	4.22854
13.68	4.2394
13.69	4.23709
13.7	4.23874
13.71	4.24565
13.72	4.23808
13.73	4.2338
13.74	4.23874
13.75	4.24005
13.76	4.23347
13.77	4.23117
13.78	4.23479
13.79	4.23676
13.8	4.22065
13.81	4.24269
13.82	4.23907
13.83	4.2463
13.84	4.23446
13.85	4.22426
13.86	4.24104
13.87	4.24038
13.88	4.22459
13.89	4.2292
13.9	4.23347
13.91	4.22525
13.92	4.2338
13.93	4.22887
13.94	4.22953
13.95	4.23413
13.96	4.22558
13.97	4.23051
13.98	4.22196
13.99	4.23742
14	4.2315
14.01	4.23249
14.02	4.22229
14.03	4.22394
14.04	4.22722
14.05	4.21834
14.06	4.21637
14.07	4.22262
14.08	4.20716
14.09	4.2315
14.1	4.22229
14.11	4.22492
14.12	4.21571
14.13	4.21966
14.14	4.22163
14.15	4.23051
14.16	4.21736
14.17	4.22361
14.18	4.22953
14.19	4.23216
14.2	4.23282
14.21	4.22525
14.22	4.21571
14.23	4.23216
14.24	4.22525
14.25	4.22953
14.26	4.23512
14.27	4.23216
14.28	4.21966
14.29	4.23315
14.3	4.21505
14.31	4.20749
14.32	4.23446
14.33	4.2213
14.34	4.2269
14.35	4.23019
14.36	4.22163
14.37	4.20453
14.38	4.21407
14.39	4.22459
14.4	4.20551
14.41	4.21111
14.42	4.21867
14.43	4.21768
14.44	4.22361
14.45	4.22722
14.46	4.21209
14.47	4.20321
14.48	4.20518
14.49	4.21374
14.5	4.21505
14.51	4.21604
14.52	4.23084
14.53	4.21703
14.54	4.20946
14.55	4.21933
14.56	4.20946
14.57	4.19926
14.58	4.20486
14.59	4.20683
14.6	4.20617
14.61	4.1963
14.62	4.20518
14.63	4.21374
14.64	4.21505
14.65	4.19861
14.66	4.21242
14.67	4.21012
14.68	4.21374
14.69	4.2167
14.7	4.21078
14.71	4.21538
14.72	4.20486
14.73	4.20551
14.74	4.20222
14.75	4.20584
14.76	4.20387
14.77	4.20453
14.78	4.20321
14.79	4.21111
14.8	4.19926
14.81	4.2065
14.82	4.21407
14.83	4.21078
14.84	4.20222
14.85	4.2042
14.86	4.21143
14.87	4.20946
14.88	4.19861
14.89	4.20584
14.9	4.20617
14.91	4.20518
14.92	4.20815
14.93	4.22032
14.94	4.21703
14.95	4.21407
14.96	4.20453
14.97	4.2065
14.98	4.21045
14.99	4.20124
15	4.19992
15.01	4.20518
15.02	4.21538
15.03	4.20551
15.04	4.2065
15.05	4.19499
15.06	4.19433
15.07	4.20124
15.08	4.20551
15.09	4.19268
15.1	4.19762
15.11	4.19696
15.12	4.22361
15.13	4.19663
15.14	4.18413
15.15	4.19992
15.16	4.19828
15.17	4.20288
15.18	4.20124
15.19	4.19367
15.2	4.20091
15.21	4.19762
15.22	4.19992
15.23	4.20058
15.24	4.19071
15.25	4.18216
15.26	4.17887
15.27	4.1838
15.28	4.18479
15.29	4.17624
15.3	4.21472
15.31	4.20091
15.32	4.19433
15.33	4.18939
15.34	4.17953
15.35	4.18643
15.36	4.18512
15.37	4.20782
15.38	4.21045
15.39	4.21538
15.4	4.19532
15.41	4.18874
15.42	4.19433
15.43	4.20222
15.44	4.19762
15.45	4.19466
15.46	4.19729
15.47	4.18249
15.48	4.18545
15.49	4.17755
15.5	4.18314
15.51	4.19696
15.52	4.18347
15.53	4.18841
15.54	4.19893
15.55	4.20025
15.56	4.19762
15.57	4.19005
15.58	4.1917
15.59	4.19104
15.6	4.19268
15.61	4.19005
15.62	4.19268
15.63	4.18643
15.64	4.18347
15.65	4.1838
15.66	4.17064
15.67	4.17887
15.68	4.18939
15.69	4.18545
15.7	4.18446
15.71	4.19959
15.72	4.18183
15.73	4.18907
15.74	4.19104
15.75	4.18282
15.76	4.17229
15.77	4.17788
15.78	4.18249
15.79	4.16703
15.8	4.17854
15.81	4.18183
15.82	4.18939
15.83	4.18282
15.84	4.17525
15.85	4.1815
15.86	4.18117
15.87	4.18084
15.88	4.18907
15.89	4.18117
15.9	4.18643
15.91	4.19005
15.92	4.17722
15.93	4.18282
15.94	4.1792
15.95	4.17722
15.96	4.18216
15.97	4.17459
15.98	4.16045
15.99	4.1815
16	4.18347
16.01	4.17821
16.02	4.17328
16.03	4.17591
16.04	4.17393
16.05	4.17097
16.06	4.17295
16.07	4.16933
16.08	4.17558
16.09	4.18413
16.1	4.17821
16.11	4.17624
16.12	4.16867
16.13	4.17097
16.14	4.1792
16.15	4.18907
16.16	4.18479
16.17	4.18282
16.18	4.17755
16.19	4.18018
16.2	4.17821
16.21	4.18018
16.22	4.18084
16.23	4.16933
16.24	4.17097
16.25	4.1815
16.26	4.19301
16.27	4.18347
16.28	4.19696
16.29	4.19038
16.3	4.18676
16.31	4.18051
16.32	4.1736
16.33	4.18282
16.34	4.18643
16.35	4.18314
16.36	4.17196
16.37	4.16735
16.38	4.1736
16.39	4.18084
16.4	4.17985
16.41	4.17689
16.42	4.17985
16.43	4.16374
16.44	4.17492
16.45	4.17229
16.46	4.17064
16.47	4.16933
16.48	4.17689
16.49	4.17229
16.5	4.16439
16.51	4.16275
16.52	4.1713
16.53	4.17985
16.54	4.16834
16.55	4.14926
16.56	4.1611
16.57	4.17558
16.58	4.16078
16.59	4.16801
16.6	4.16999
16.61	4.17722
16.62	4.1792
16.63	4.17262
16.64	4.16966
16.65	4.17031
16.66	4.17788
16.67	4.17985
16.68	4.17854
16.69	4.18282
16.7	4.17591
16.71	4.16308
16.72	4.15847
16.73	4.16308
16.74	4.17262
16.75	4.16275
16.76	4.16012
16.77	4.16505
16.78	4.1713
16.79	4.17262
16.8	4.16768
16.81	4.16045
16.82	4.16933
16.83	4.16735
16.84	4.18183
16.85	4.16505
16.86	4.17163
16.87	4.17229
16.88	4.16735
16.89	4.15749
16.9	4.1667
16.91	4.15913
16.92	4.15749
16.93	4.16703
16.94	4.17196
16.95	4.17064
16.96	4.16406
16.97	4.16275
16.98	4.17229
16.99	4.16308
17	4.1611
17.01	4.18117
17.02	4.16768
17.03	4.16374
17.04	4.17064
17.05	4.17624
17.06	4.17097
17.07	4.16735
17.08	4.18347
17.09	4.17295
17.1	4.17591
17.11	4.1815
17.12	4.17755
17.13	4.16637
17.14	4.169
17.15	4.16768
17.16	4.16703
17.17	4.15749
17.18	4.16308
17.19	4.169
17.2	4.17525
17.21	4.17064
17.22	4.17657
17.23	4.169
17.24	4.15913
17.25	4.14564
17.26	4.16801
17.27	4.17558
17.28	4.17262
17.29	4.16834
17.3	4.17064
17.31	4.16308
17.32	4.16176
17.33	4.15584
17.34	4.16374
17.35	4.16472
17.36	4.1565
17.37	4.15321
17.38	4.15946
17.39	4.15683
17.4	4.15091
17.41	4.15781
17.42	4.16308
17.43	4.16078
17.44	4.16439
17.45	4.16538
17.46	4.1542
17.47	4.15387
17.48	4.15913
17.49	4.1611
17.5	4.15452
17.51	4.16176
17.52	4.16472
17.53	4.1588
17.54	4.15485
17.55	4.16341
17.56	4.16176
17.57	4.17295
17.58	4.16637
17.59	4.15025
17.6	4.14663
17.61	4.15551
17.62	4.15058
17.63	4.15025
17.64	4.15518
17.65	4.17031
17.66	4.16472
17.67	4.1486
17.68	4.1486
17.69	4.16275
17.7	4.15091
17.71	4.15222
17.72	4.16176
17.73	4.1361
17.74	4.15124
17.75	4.15913
17.76	4.14893
17.77	4.15617
17.78	4.14992
17.79	4.15946
17.8	4.16834
17.81	4.16209
17.82	4.15781
17.83	4.15749
17.84	4.15946
17.85	4.15189
17.86	4.16604
17.87	4.17097
17.88	4.16439
17.89	4.15452
17.9	4.14071
17.91	4.15124
17.92	4.15814
17.93	4.17295
17.94	4.16045
17.95	4.15781
17.96	4.14926
17.97	4.15255
17.98	4.16308
17.99	4.15058
18	4.15485
18.01	4.14762
18.02	4.1611
18.03	4.1565
18.04	4.14597
18.05	4.14038
18.06	4.15485
18.07	4.14729
18.08	4.14729
18.09	4.16209
18.1	4.15288
18.11	4.144
18.12	4.15683
18.13	4.14466
18.14	4.14202
18.15	4.15091
18.16	4.1542
18.17	4.15387
18.18	4.14663
18.19	4.15025
18.2	4.14959
18.21	4.15946
18.22	4.14202
18.23	4.13248
18.24	4.14005
18.25	4.15189
18.26	4.14893
18.27	4.15288
18.28	4.14893
18.29	4.13676
18.3	4.14005
18.31	4.14104
18.32	4.14268
18.33	4.14104
18.34	4.15387
18.35	4.1417
18.36	4.1361
18.37	4.15222
18.38	4.13742
18.39	4.13446
18.4	4.14466
18.41	4.14893
18.42	4.14926
18.43	4.15617
18.44	4.14795
18.45	4.14466
18.46	4.14663
18.47	4.14367
18.48	4.16209
18.49	4.13906
18.5	4.14005
18.51	4.16078
18.52	4.15222
18.53	4.14104
18.54	4.1338
18.55	4.13216
18.56	4.15551
18.57	4.16209
18.58	4.13676
18.59	4.14235
18.6	4.14334
18.61	4.14005
18.62	4.14597
18.63	4.14268
18.64	4.13577
18.65	4.1417
18.66	4.13906
18.67	4.13577
18.68	4.13446
18.69	4.13841
18.7	4.14433
18.71	4.13939
18.72	4.14137
18.73	4.14301
18.74	4.14367
18.75	4.15452
18.76	4.14959
18.77	4.14959
18.78	4.14762
18.79	4.15156
18.8	4.13742
18.81	4.15058
18.82	4.13577
18.83	4.15025
18.84	4.14696
18.85	4.13841
18.86	4.13117
18.87	4.13874
18.88	4.13742
18.89	4.13906
18.9	4.14005
18.91	4.13643
18.92	4.13939
18.93	4.14104
18.94	4.13808
18.95	4.1463
18.96	4.15814
18.97	4.1463
18.98	4.14729
18.99	4.14367
19	4.1361
19.01	4.13479
19.02	4.14268
19.03	4.14531
19.04	4.14663
19.05	4.13117
19.06	4.13841
19.07	4.13906
19.08	4.14893
19.09	4.15387
19.1	4.14992
19.11	4.13939
19.12	4.12985
19.13	4.14301
19.14	4.15025
19.15	4.15485
19.16	4.14762
19.17	4.12854
19.18	4.13248
19.19	4.13742
19.2	4.14433
19.21	4.14038
19.22	4.13972
19.23	4.13216
19.24	4.12722
19.25	4.14005
19.26	4.15321
19.27	4.15485
19.28	4.14334
19.29	4.13084
19.3	4.13413
19.31	4.13413
19.32	4.14071
19.33	4.13939
19.34	4.13676
19.35	4.13906
19.36	4.13939
19.37	4.13084
19.38	4.12887
19.39	4.14992
19.4	4.13084
19.41	4.13577
19.42	4.14696
19.43	4.16078
19.44	4.15617
19.45	4.14202
19.46	4.14795
19.47	4.15387
19.48	4.13281
19.49	4.14104
19.5	4.14137
19.51	4.13479
19.52	4.14334
19.53	4.12985
19.54	4.12755
19.55	4.13216
19.56	4.13347
19.57	4.13939
19.58	4.13709
19.59	4.13841
19.6	4.13117
19.61	4.13512
19.62	4.13248
19.63	4.14531
19.64	4.12689
19.65	4.13841
19.66	4.12262
19.67	4.1236
19.68	4.13841
19.69	4.13775
19.7	4.1361
19.71	4.13545
19.72	4.13643
19.73	4.12689
19.74	4.12393
19.75	4.12952
19.76	4.13183
19.77	4.13808
19.78	4.13545
19.79	4.14202
19.8	4.13117
19.81	4.1236
19.82	4.13841
19.83	4.13216
19.84	4.13479
19.85	4.14762
19.86	4.13347
19.87	4.13248
19.88	4.13742
19.89	4.13577
19.9	4.12952
19.91	4.12788
19.92	4.12689
19.93	4.12755
19.94	4.11768
19.95	4.12689
19.96	4.1338
19.97	4.13775
19.98	4.14202
19.99	4.14071
20	4.14827
20.01	4.13545
20.02	4.12788
20.03	4.13117
20.04	4.13248
20.05	4.14038
20.06	4.13742
20.07	4.12854
20.08	4.14071
20.09	4.1417
20.1	4.14268
20.11	4.15749
20.12	4.14038
20.13	4.13742
20.14	4.14235
20.15	4.14235
20.16	4.14729
20.17	4.13841
20.18	4.14268
20.19	4.13314
20.2	4.14005
20.21	4.14597
20.22	4.13972
20.23	4.13413
20.24	4.12262
20.25	4.13248
20.26	4.1236
20.27	4.13742
20.28	4.12887
20.29	4.12196
20.3	4.13314
20.31	4.13051
20.32	4.1292
20.33	4.12985
20.34	4.13808
20.35	4.13446
20.36	4.13347
20.37	4.13051
20.38	4.1236
20.39	4.12525
20.4	4.12492
20.41	4.12295
20.42	4.12031
20.43	4.13577
20.44	4.13347
20.45	4.1236
20.46	4.11867
20.47	4.11735
20.48	4.12854
20.49	4.13084
20.5	4.13314
20.51	4.13051
20.52	4.13643
20.53	4.13018
20.54	4.13808
20.55	4.144
20.56	4.12788
20.57	4.12788
20.58	4.12229
20.59	4.1315
20.6	4.12689
20.61	4.11867
20.62	4.12525
20.63	4.119
20.64	4.12689
20.65	4.13643
20.66	4.13051
20.67	4.13183
20.68	4.1315
20.69	4.11406
20.7	4.12525
20.71	4.13183
20.72	4.12097
20.73	4.11933
20.74	4.12163
20.75	4.13347
20.76	4.1315
20.77	4.11538
20.78	4.12327
20.79	4.12656
20.8	4.12722
20.81	4.13972
20.82	4.12031
20.83	4.11538
20.84	4.13117
20.85	4.12295
20.86	4.13084
20.87	4.119
20.88	4.11242
20.89	4.12459
20.9	4.12558
20.91	4.1111
20.92	4.11604
20.93	4.12656
20.94	4.12327
20.95	4.11801
20.96	4.11768
20.97	4.12722
20.98	4.11933
20.99	4.12196
21	4.12295
21.01	4.12031
21.02	4.12558
21.03	4.12821
21.04	4.12064
21.05	4.13446
21.06	4.11801
21.07	4.11275
21.08	4.12689
21.09	4.14301
21.1	4.14268
21.11	4.12623
21.12	4.11867
21.13	4.12985
21.14	4.12459
21.15	4.11867
21.16	4.13216
21.17	4.11439
21.18	4.11867
21.19	4.11669
21.2	4.1065
21.21	4.11538
21.22	4.12393
21.23	4.12558
21.24	4.12656
21.25	4.13051
21.26	4.12163
21.27	4.12623
21.28	4.13512
21.29	4.11998
21.3	4.13117
21.31	4.12031
21.32	4.11834
21.33	4.13643
21.34	4.12492
21.35	4.13775
21.36	4.1338
21.37	4.12722
21.38	4.12393
21.39	4.1236
21.4	4.11669
21.41	4.11669
21.42	4.12163
21.43	4.12031
21.44	4.12788
21.45	4.13906
21.46	4.13314
21.47	4.11669
21.48	4.12031
21.49	4.12229
21.5	4.12426
21.51	4.11571
21.52	4.1236
21.53	4.12689
21.54	4.12262
21.55	4.11242
21.56	4.1236
21.57	4.12262
21.58	4.11242
21.59	4.12064
21.6	4.11176
21.61	4.11768
21.62	4.11834
21.63	4.1213
21.64	4.12492
21.65	4.11505
21.66	4.11669
21.67	4.11669
21.68	4.11801
21.69	4.1236
21.7	4.12591
21.71	4.12393
21.72	4.11176
21.73	4.11505
21.74	4.11834
21.75	4.1236
21.76	4.1111
21.77	4.12031
21.78	4.12163
21.79	4.12985
21.8	4.11242
21.81	4.11439
21.82	4.11867
21.83	4.11044
21.84	4.11209
21.85	4.12262
21.86	4.11143
21.87	4.10419
21.88	4.11768
21.89	4.12196
21.9	4.12722
21.91	4.12295
21.92	4.1213
21.93	4.12887
21.94	4.11834
21.95	4.12295
21.96	4.11472
21.97	4.12031
21.98	4.11669
21.99	4.12031
22	4.11998
22.01	4.12426
22.02	4.12722
22.03	4.12459
22.04	4.11143
22.05	4.11209
22.06	4.10781
22.07	4.11406
22.08	4.1111
22.09	4.11669
22.1	4.12558
22.11	4.11012
22.12	4.1088
22.13	4.10716
22.14	4.11505
22.15	4.11275
22.16	4.11439
22.17	4.13314
22.18	4.11406
22.19	4.10584
22.2	4.11669
22.21	4.11538
22.22	4.10814
22.23	4.13314
22.24	4.11801
22.25	4.11373
22.26	4.10814
22.27	4.11966
22.28	4.11998
22.29	4.12262
22.3	4.12952
22.31	4.11571
22.32	4.11373
22.33	4.10979
22.34	4.10617
22.35	4.10222
22.36	4.09465
22.37	4.10748
22.38	4.1111
22.39	4.11242
22.4	4.12031
22.41	4.12393
22.42	4.11077
22.43	4.10123
22.44	4.11834
22.45	4.12689
22.46	4.1088
22.47	4.11505
22.48	4.12492
22.49	4.11669
22.5	4.11669
22.51	4.10551
22.52	4.1009
22.53	4.11834
22.54	4.12689
22.55	4.12426
22.56	4.12591
22.57	4.10979
22.58	4.11308
22.59	4.09663
22.6	4.11012
22.61	4.11308
22.62	4.1065
22.63	4.11472
22.64	4.11406
22.65	4.1213
22.66	4.11439
22.67	4.10716
22.68	4.10683
22.69	4.10288
22.7	4.10518
22.71	4.10913
22.72	4.11702
22.73	4.12163
22.74	4.11966
22.75	4.11538
22.76	4.12097
22.77	4.10025
22.78	4.11176
22.79	4.11998
22.8	4.11637
22.81	4.10485
22.82	4.1009
22.83	4.10716
22.84	4.10189
22.85	4.10222
22.86	4.11735
22.87	4.11143
22.88	4.11077
22.89	4.10584
22.9	4.11735
22.91	4.10255
22.92	4.09762
22.93	4.09926
22.94	4.10518
22.95	4.10847
22.96	4.10288
22.97	4.11505
22.98	4.10123
22.99	4.08709
23	4.10025
23.01	4.11472
23.02	4.11209
23.03	4.10781
23.04	4.10518
23.05	4.10617
23.06	4.10452
23.07	4.11044
23.08	4.11406
23.09	4.11209
23.1	4.12295
23.11	4.10814
23.12	4.0986
23.13	4.11143
23.14	4.11044
23.15	4.10683
23.16	4.12492
23.17	4.11406
23.18	4.11341
23.19	4.10781
23.2	4.10452
23.21	4.10452
23.22	4.11834
23.23	4.10781
23.24	4.12262
23.25	4.09926
23.26	4.10387
23.27	4.09992
23.28	4.09762
23.29	4.11176
23.3	4.10584
23.31	4.10946
23.32	4.11077
23.33	4.10354
23.34	4.10189
23.35	4.10814
23.36	4.09926
23.37	4.0986
23.38	4.10584
23.39	4.12031
23.4	4.11669
23.41	4.10716
23.42	4.10452
23.43	4.10913
23.44	4.11669
23.45	4.11998
23.46	4.11669
23.47	4.10354
23.48	4.10551
23.49	4.11406
23.5	4.10716
23.51	4.10946
23.52	4.09663
23.53	4.10321
23.54	4.09663
23.55	4.11341
23.56	4.1111
23.57	4.09564
23.58	4.09696
23.59	4.11604
23.6	4.11637
23.61	4.11702
23.62	4.10617
23.63	4.11406
23.64	4.119
23.65	4.11406
23.66	4.11341
23.67	4.11143
23.68	4.10716
23.69	4.11077
23.7	4.11209
23.71	4.11571
23.72	4.11012
23.73	4.10419
23.74	4.11044
23.75	4.11472
23.76	4.10748
23.77	4.10716
23.78	4.11012
23.79	4.10452
23.8	4.10617
23.81	4.11308
23.82	4.10946
23.83	4.11966
23.84	4.11275
23.85	4.11439
23.86	4.09893
23.87	4.10123
23.88	4.10913
23.89	4.11209
23.9	4.10419
23.91	4.10584
23.92	4.10255
23.93	4.10847
23.94	4.11834
23.95	4.09663
23.96	4.09465
23.97	4.10222
23.98	4.10847
23.99	4.09893
24	4.10518
24.01	4.10321
24.02	4.09992
24.03	4.09729
24.04	4.10387
24.05	4.11406
24.06	4.10387
24.07	4.10913
24.08	4.10387
24.09	4.10551
24.1	4.09992
24.11	4.11176
24.12	4.0963
24.13	4.09827
24.14	4.094
24.15	4.09433
24.16	4.08775
24.17	4.09696
24.18	4.1065
24.19	4.10716
24.2	4.11406
24.21	4.11604
24.22	4.10058
24.23	4.12097
24.24	4.10946
24.25	4.10716
24.26	4.10518
24.27	4.10156
24.28	4.09926
24.29	4.10452
24.3	4.10584
24.31	4.09367
24.32	4.10683
24.33	4.11505
24.34	4.10222
24.35	4.09169
24.36	4.10518
24.37	4.10485
24.38	4.11373
24.39	4.10781
24.4	4.09597
24.41	4.10551
24.42	4.11637
24.43	4.09663
24.44	4.10058
24.45	4.11275
24.46	4.10979
24.47	4.09268
24.48	4.09334
24.49	4.10156
24.5	4.09926
24.51	4.1065
24.52	4.10946
24.53	4.10452
24.54	4.10551
24.55	4.0986
24.56	4.09235
24.57	4.09531
24.58	4.094
24.59	4.09498
24.6	4.09794
24.61	4.08808
24.62	4.1065
24.63	4.10189
24.64	4.11505
24.65	4.10419
24.66	4.10058
24.67	4.09663
24.68	4.10419
24.69	4.0884
24.7	4.09959
24.71	4.09038
24.72	4.09465
24.73	4.10518
24.74	4.09794
24.75	4.09433
24.76	4.0986
24.77	4.09367
24.78	4.08873
24.79	4.09301
24.8	4.094
24.81	4.09992
24.82	4.08511
24.83	4.10485
24.84	4.09169
24.85	4.09794
24.86	4.09794
24.87	4.08742
24.88	4.09235
24.89	4.09663
24.9	4.09564
24.91	4.0963
24.92	4.10255
24.93	4.09893
24.94	4.10913
24.95	4.10288
24.96	4.10913
24.97	4.09104
24.98	4.09663
24.99	4.09926
25	4.10518
25.01	4.11308
25.02	4.09893
25.03	4.10058
25.04	4.09531
25.05	4.09169
25.06	4.09202
25.07	4.09729
25.08	4.09663
25.09	4.09992
25.1	4.10354
25.11	4.10584
25.12	4.09465
25.13	4.09137
25.14	4.09959
25.15	4.08709
25.16	4.09762
25.17	4.10617
25.18	4.10419
25.19	4.09433
25.2	4.094
25.21	4.09071
25.22	4.09071
25.23	4.08873
25.24	4.09038
25.25	4.09926
25.26	4.09827
25.27	4.10387
25.28	4.08906
25.29	4.09827
25.3	4.10847
25.31	4.09498
25.32	4.08183
25.33	4.09498
25.34	4.08775
25.35	4.09137
25.36	4.09235
25.37	4.09038
25.38	4.08643
25.39	4.08939
25.4	4.10025
25.41	4.09597
25.42	4.09729
25.43	4.09696
25.44	4.1009
25.45	4.10288
25.46	4.09531
25.47	4.09564
25.48	4.09794
25.49	4.10452
25.5	4.08413
25.51	4.08347
25.52	4.09992
25.53	4.10485
25.54	4.1009
25.55	4.08347
25.56	4.08446
25.57	4.1111
25.58	4.1088
25.59	4.10584
25.6	4.09564
25.61	4.08775
25.62	4.09071
25.63	4.09137
25.64	4.09959
25.65	4.09169
25.66	4.10189
25.67	4.10354
25.68	4.1009
25.69	4.0986
25.7	4.09137
25.71	4.09202
25.72	4.08413
25.73	4.10156
25.74	4.09202
25.75	4.09367
25.76	4.10321
25.77	4.08314
25.78	4.08018
25.79	4.09465
25.8	4.07985
25.81	4.08018
25.82	4.08347
25.83	4.09729
25.84	4.08643
25.85	4.09005
25.86	4.10716
25.87	4.09893
25.88	4.1009
25.89	4.09169
25.9	4.07985
25.91	4.08643
25.92	4.09794
25.93	4.09104
25.94	4.09893
25.95	4.10189
25.96	4.08511
25.97	4.08577
25.98	4.10288
25.99	4.1065
26	4.08972
26.01	4.08906
26.02	4.09926
26.03	4.10452
26.04	4.09005
26.05	4.09663
26.06	4.07558
26.07	4.07393
26.08	4.08808
26.09	4.09498
26.1	4.09465
26.11	4.09202
26.12	4.09038
26.13	4.09202
26.14	4.10485
26.15	4.10222
26.16	4.09959
26.17	4.09696
26.18	4.10288
26.19	4.08479
26.2	4.10321
26.21	4.10683
26.22	4.10255
26.23	4.10123
26.24	4.07952
26.25	4.09137
26.26	4.09729
26.27	4.09104
26.28	4.08544
26.29	4.10452
26.3	4.09663
26.31	4.09433
26.32	4.09202
26.33	4.08972
26.34	4.09893
26.35	4.08808
26.36	4.08906
26.37	4.09465
26.38	4.09005
26.39	4.08446
26.4	4.08742
26.41	4.07558
26.42	4.08281
26.43	4.0838
26.44	4.094
26.45	4.09005
26.46	4.08643
26.47	4.07952
26.48	4.08873
26.49	4.08742
26.5	4.09762
26.51	4.09202
26.52	4.07919
26.53	4.09729
26.54	4.09564
26.55	4.08873
26.56	4.09663
26.57	4.10058
26.58	4.09268
26.59	4.09005
26.6	4.08808
26.61	4.09334
26.62	4.09071
26.63	4.08314
26.64	4.07952
26.65	4.07492
26.66	4.09926
26.67	4.09268
26.68	4.08808
26.69	4.08347
26.7	4.09038
26.71	4.09564
26.72	4.08544
26.73	4.08972
26.74	4.09268
26.75	4.09235
26.76	4.08577
26.77	4.06604
26.78	4.09104
26.79	4.09334
26.8	4.08906
26.81	4.09926
26.82	4.08281
26.83	4.09992
26.84	4.09893
26.85	4.10156
26.86	4.09926
26.87	4.09137
26.88	4.10189
26.89	4.10617
26.9	4.09531
26.91	4.09992
26.92	4.09202
26.93	4.09235
26.94	4.09992
26.95	4.10485
26.96	4.10518
26.97	4.10123
26.98	4.0986
26.99	4.10617
27	4.10452
27.01	4.11439
27.02	4.10156
27.03	4.08183
27.04	4.0861
27.05	4.09531
27.06	4.09433
27.07	4.09663
27.08	4.09498
27.09	4.09104
27.1	4.08183
27.11	4.08873
27.12	4.10321
27.13	4.09334
27.14	4.09301
27.15	4.09038
27.16	4.08314
27.17	4.07327
27.18	4.07952
27.19	4.07525
27.2	4.10584
27.21	4.0838
27.22	4.07919
27.23	4.08281
27.24	4.10058
27.25	4.09104
27.26	4.08577
27.27	4.0759
27.28	4.07854
27.29	4.08183
27.3	4.08742
27.31	4.08018
27.32	4.08479
27.33	4.08972
27.34	4.094
27.35	4.07492
27.36	4.07689
27.37	4.09235
27.38	4.08446
27.39	4.08183
27.4	4.07886
27.41	4.09005
27.42	4.07492
27.43	4.07919
27.44	4.07886
27.45	4.08544
27.46	4.09071
27.47	4.08314
27.48	4.08314
27.49	4.08281
27.5	4.08051
27.51	4.07689
27.52	4.08281
27.53	4.08051
27.54	4.08742
27.55	4.10354
27.56	4.08084
27.57	4.07985
27.58	4.09137
27.59	4.10123
27.6	4.09104
27.61	4.08972
27.62	4.0884
27.63	4.1009
27.64	4.08972
27.65	4.08577
27.66	4.0861
27.67	4.09202
27.68	4.08808
27.69	4.08709
27.7	4.09071
27.71	4.10189
27.72	4.08939
27.73	4.0861
27.74	4.08906
27.75	4.08511
27.76	4.08939
27.77	4.08873
27.78	4.10255
27.79	4.09235
27.8	4.0815
27.81	4.0815
27.82	4.08511
27.83	4.0986
27.84	4.08183
27.85	4.08676
27.86	4.08347
27.87	4.08248
27.88	4.09202
27.89	4.09005
27.9	4.0815
27.91	4.09104
27.92	4.08051
27.93	4.08709
27.94	4.08183
27.95	4.08117
27.96	4.08215
27.97	4.08413
27.98	4.08183
27.99	4.07163
28	4.08972
28.01	4.07919
28.02	4.09465
28.03	4.09433
28.04	4.08413
28.05	4.06932
28.06	4.07492
28.07	4.09005
28.08	4.09202
28.09	4.07689
28.1	4.08479
28.11	4.08511
28.12	4.08709
28.13	4.09071
28.14	4.07854
28.15	4.08314
28.16	4.0713
28.17	4.07558
28.18	4.07459
28.19	4.07623
28.2	4.08314
28.21	4.09696
28.22	4.08972
28.23	4.0861
28.24	4.08281
28.25	4.08479
28.26	4.06571
28.27	4.06439
28.28	4.08577
28.29	4.08643
28.3	4.09169
28.31	4.08511
28.32	4.08248
28.33	4.08413
28.34	4.08808
28.35	4.07393
28.36	4.0861
28.37	4.10058
28.38	4.08051
28.39	4.08347
28.4	4.07952
28.41	4.0838
28.42	4.08281
28.43	4.07854
28.44	4.08873
28.45	4.0759
28.46	4.08018
28.47	4.0759
28.48	4.07656
28.49	4.08347
28.5	4.08446
28.51	4.08413
28.52	4.09235
28.53	4.08643
28.54	4.0713
28.55	4.08709
28.56	4.07886
28.57	4.06176
28.58	4.07294
28.59	4.08215
28.6	4.08479
28.61	4.09367
28.62	4.07722
28.63	4.07689
28.64	4.07919
28.65	4.07327
28.66	4.07952
28.67	4.08215
28.68	4.09433
28.69	4.08446
28.7	4.08051
28.71	4.07623
28.72	4.07229
28.73	4.08347
28.74	4.08446
28.75	4.07525
28.76	4.08117
28.77	4.08051
28.78	4.06834
28.79	4.08281
28.8	4.08183
28.81	4.08084
28.82	4.07064
28.83	4.06867
28.84	4.07229
28.85	4.07525
28.86	4.07854
28.87	4.07985
28.88	4.07558
28.89	4.07426
28.9	4.07327
28.91	4.07327
28.92	4.07919
28.93	4.07656
28.94	4.08544
28.95	4.08446
28.96	4.09038
28.97	4.0861
28.98	4.08347
28.99	4.07459
29	4.07919
29.01	4.07854
29.02	4.09597
29.03	4.08511
29.04	4.09597
29.05	4.09301
29.06	4.08643
29.07	4.08643
29.08	4.09202
29.09	4.09071
29.1	4.08577
29.11	4.08972
29.12	4.08084
29.13	4.08709
29.14	4.07656
29.15	4.07886
29.16	4.09367
29.17	4.07261
29.18	4.07985
29.19	4.07821
29.2	4.07886
29.21	4.08873
29.22	4.08215
29.23	4.07196
29.24	4.07919
29.25	4.07229
29.26	4.07788
29.27	4.07196
29.28	4.08117
29.29	4.08676
29.3	4.06702
29.31	4.09794
29.32	4.09235
29.33	4.08709
29.34	4.08544
29.35	4.07854
29.36	4.0736
29.37	4.08248
29.38	4.07919
29.39	4.08248
29.4	4.08676
29.41	4.08511
29.42	4.07755
29.43	4.08018
29.44	4.08314
29.45	4.0838
29.46	4.07623
29.47	4.07064
29.48	4.08577
29.49	4.08939
29.5	4.0713
29.51	4.08117
29.52	4.06867
29.53	4.06636
29.54	4.07886
29.55	4.07097
29.56	4.07689
29.57	4.07755
29.58	4.07031
29.59	4.07196
29.6	4.07558
29.61	4.07558
29.62	4.07196
29.63	4.07854
29.64	4.0713
29.65	4.07656
29.66	4.06373
29.67	4.08018
29.68	4.06867
29.69	4.07097
29.7	4.07886
29.71	4.07656
29.72	4.07229
29.73	4.06143
29.74	4.07492
29.75	4.07064
29.76	4.07229
29.77	4.07327
29.78	4.08544
29.79	4.07854
29.8	4.07952
29.81	4.07886
29.82	4.08248
29.83	4.08248
29.84	4.06768
29.85	4.06143
29.86	4.06998
29.87	4.0815
29.88	4.09893
29.89	4.08676
29.9	4.0815
29.91	4.07656
29.92	4.069
29.93	4.0736
29.94	4.07327
29.95	4.10321
29.96	4.08775
29.97	4.08117
29.98	4.0815
29.99	4.08873
30	4.08084
