"BIO-KINE ASCII FILE"
"_COMMENT"	"MOS-500 Spectrometer"
"_COMMENT"	"Kinetics measurement"
"_COMMENT"	"Y Unit : Volt,  X Unit : s"
"_COMMENT"	"Excitation wavelength : 380 nm"
"_COMMENT"	"Fentes bandwidth =  1 nm"
"_COMMENT"	"HV= 850V"
"_COMMENT"	"Timebase  1 =  .01 s   3001 pts"
"_SFM"	"SFM-400 /S  Advanced mode"
"_SFM"	"Ratio : S1: 2.5, S2: 0, S3: 0, S4: 1"
"_SFM"	"Content : S1: , S2: , S3: , S4:"
"_SFM"	"Concentration : S1: , S2: , S3: , S4:"
"_SFM"	"Total volume : 209 µl  Flow : 3.5 mL/s"
"_SFM"	"Acquisition start :  10 ms before stop"
"_SFM"	"cuve=FC-15, s1=10 ml , s2=10 ml , s3=10 ml , s4=1.9 ml"
"_UNITX"	"s"
"_UNITY"	"Volt"
"_DELTAX"	0
"_DATA"
1e-300	5.22133
0.01	6.16182
0.02	6.89737
0.03	7.00856
0.04	6.93388
0.05	6.94902
0.06	6.95
0.07	6.93948
0.08	6.94671
0.09	6.9454
0.1	6.93125
0.11	6.96513
0.12	6.95987
0.13	6.93684
0.14	6.9454
0.15	6.91842
0.16	6.95461
0.17	6.94704
0.18	6.95823
0.19	6.95921
0.2	6.94244
0.21	6.93026
0.22	6.94441
0.23	6.94474
0.24	6.94309
0.25	6.94869
0.26	6.92961
0.27	6.95757
0.28	6.9477
0.29	6.8954
0.3	6.91612
0.31	6.88586
0.32	6.89079
0.33	6.91678
0.34	6.88783
0.35	6.89474
0.36	6.91776
0.37	6.89803
0.38	6.8671
0.39	6.89704
0.4	6.88355
0.41	6.90296
0.42	6.86974
0.43	6.86283
0.44	6.86283
0.45	6.83487
0.46	6.8523
0.47	6.8546
0.48	6.83256
0.49	6.81381
0.5	6.84276
0.51	6.82697
0.52	6.82927
0.53	6.84243
0.54	6.84375
0.55	6.8125
0.56	6.81316
0.57	6.81349
0.58	6.81677
0.59	6.80526
0.6	6.80625
0.61	6.7921
0.62	6.82237
0.63	6.81776
0.64	6.77039
0.65	6.78289
0.66	6.78717
0.67	6.77796
0.68	6.7773
0.69	6.7694
0.7	6.76315
0.71	6.75526
0.72	6.75592
0.73	6.76579
0.74	6.76677
0.75	6.7444
0.76	6.73256
0.77	6.73486
0.78	6.73947
0.79	6.73289
0.8	6.72467
0.81	6.69901
0.82	6.73684
0.83	6.70789
0.84	6.67467
0.85	6.68552
0.86	6.68519
0.87	6.69046
0.88	6.69243
0.89	6.67927
0.9	6.68421
0.91	6.70296
0.92	6.68388
0.93	6.66743
0.94	6.68585
0.95	6.68749
0.96	6.68453
0.97	6.65526
0.98	6.66052
0.99	6.66578
1	6.64901
1.01	6.64243
1.02	6.65822
1.03	6.63486
1.04	6.6342
1.05	6.6296
1.06	6.61249
1.07	6.6194
1.08	6.59539
1.09	6.58519
1.1	6.58716
1.11	6.59177
1.12	6.58157
1.13	6.5967
1.14	6.57993
1.15	6.56381
1.16	6.56578
1.17	6.55493
1.18	6.5796
1.19	6.57104
1.2	6.53256
1.21	6.55558
1.22	6.53387
1.23	6.52565
1.24	6.54769
1.25	6.54407
1.26	6.54045
1.27	6.51677
1.28	6.52367
1.29	6.5342
1.3	6.49045
1.31	6.48157
1.32	6.5171
1.33	6.52598
1.34	6.47959
1.35	6.48716
1.36	6.53058
1.37	6.52729
1.38	6.50065
1.39	6.49111
1.4	6.46051
1.41	6.4944
1.42	6.46019
1.43	6.46183
1.44	6.4842
1.45	6.49045
1.46	6.47269
1.47	6.46742
1.48	6.45821
1.49	6.44834
1.5	6.44736
1.51	6.43749
1.52	6.45887
1.53	6.42597
1.54	6.42367
1.55	6.42992
1.56	6.41545
1.57	6.3888
1.58	6.40887
1.59	6.38716
1.6	6.41051
1.61	6.39801
1.62	6.41775
1.63	6.38485
1.64	6.39801
1.65	6.37334
1.66	6.34308
1.67	6.38584
1.68	6.37433
1.69	6.35854
1.7	6.349
1.71	6.33847
1.72	6.34209
1.73	6.33124
1.74	6.31939
1.75	6.33683
1.76	6.35492
1.77	6.32202
1.78	6.32071
1.79	6.32926
1.8	6.33354
1.81	6.31084
1.82	6.31051
1.83	6.29637
1.84	6.2888
1.85	6.27794
1.86	6.30262
1.87	6.31117
1.88	6.28321
1.89	6.26577
1.9	6.24702
1.91	6.28222
1.92	6.26709
1.93	6.26544
1.94	6.24669
1.95	6.21873
1.96	6.27729
1.97	6.2661
1.98	6.23847
1.99	6.22202
2	6.22005
2.01	6.21676
2.02	6.22334
2.03	6.23353
2.04	6.18057
2.05	6.18913
2.06	6.19505
2.07	6.18945
2.08	6.1809
2.09	6.17432
2.1	6.16347
2.11	6.18748
2.12	6.22103
2.13	6.18814
2.14	6.16906
2.15	6.19176
2.16	6.16084
2.17	6.14373
2.18	6.15656
2.19	6.14702
2.2	6.12169
2.21	6.15294
2.22	6.16544
2.23	6.14472
2.24	6.14241
2.25	6.12169
2.26	6.11544
2.27	6.11741
2.28	6.11972
2.29	6.11314
2.3	6.11807
2.31	6.11314
2.32	6.09373
2.33	6.0911
2.34	6.0855
2.35	6.08419
2.36	6.08156
2.37	6.07465
2.38	6.07596
2.39	6.08419
2.4	6.07991
2.41	6.07564
2.42	6.06478
2.43	6.05721
2.44	6.04373
2.45	6.05195
2.46	6.05853
2.47	6.04833
2.48	6.03057
2.49	6.04142
2.5	6.02958
2.51	6.03879
2.52	6.04011
2.53	6.04669
2.54	6.03057
2.55	6.00228
2.56	6.0059
2.57	5.9957
2.58	5.9934
2.59	5.98649
2.6	6.02596
2.61	5.99109
2.62	6.00491
2.63	5.99307
2.64	5.9934
2.65	5.99076
2.66	5.98451
2.67	5.98978
2.68	5.99537
2.69	5.98188
2.7	5.93945
2.71	5.93484
2.72	5.94932
2.73	5.95359
2.74	5.94636
2.75	5.95293
2.76	5.92037
2.77	5.90688
2.78	5.89734
2.79	5.91149
2.8	5.91807
2.81	5.92695
2.82	5.923
2.83	5.91083
2.84	5.89668
2.85	5.89339
2.86	5.89668
2.87	5.88089
2.88	5.88056
2.89	5.89438
2.9	5.9082
2.91	5.89734
2.92	5.88385
2.93	5.87333
2.94	5.86642
2.95	5.86806
2.96	5.86148
2.97	5.87037
2.98	5.84866
2.99	5.83385
3	5.86971
3.01	5.86708
3.02	5.848
3.03	5.83023
3.04	5.83583
3.05	5.81642
3.06	5.85195
3.07	5.83287
3.08	5.86148
3.09	5.86971
3.1	5.82267
3.11	5.81938
3.12	5.80721
3.13	5.81839
3.14	5.81543
3.15	5.7753
3.16	5.79865
3.17	5.78977
3.18	5.78648
3.19	5.80161
3.2	5.78418
3.21	5.77135
3.22	5.7924
3.23	5.78813
3.24	5.78582
3.25	5.78582
3.26	5.78254
3.27	5.73286
3.28	5.7549
3.29	5.7526
3.3	5.75852
3.31	5.76346
3.32	5.76642
3.33	5.76313
3.34	5.74964
3.35	5.75063
3.36	5.74865
3.37	5.73188
3.38	5.7253
3.39	5.73747
3.4	5.74438
3.41	5.72299
3.42	5.70457
3.43	5.70161
3.44	5.6878
3.45	5.7128
3.46	5.7072
3.47	5.67332
3.48	5.68352
3.49	5.69997
3.5	5.68286
3.51	5.68911
3.52	5.66543
3.53	5.65358
3.54	5.66279
3.55	5.67266
3.56	5.6549
3.57	5.66608
3.58	5.65622
3.59	5.64602
3.6	5.64108
3.61	5.6424
3.62	5.647
3.63	5.6322
3.64	5.61477
3.65	5.62628
3.66	5.63516
3.67	5.62628
3.68	5.62793
3.69	5.62431
3.7	5.62595
3.71	5.59898
3.72	5.58385
3.73	5.59832
3.74	5.60983
3.75	5.6049
3.76	5.63023
3.77	5.59404
3.78	5.55786
3.79	5.58319
3.8	5.6095
3.81	5.55391
3.82	5.57628
3.83	5.61049
3.84	5.58088
3.85	5.57463
3.86	5.59108
3.87	5.57694
3.88	5.53845
3.89	5.54634
3.9	5.56871
3.91	5.56838
3.92	5.54437
3.93	5.52924
3.94	5.52726
3.95	5.52529
3.96	5.53944
3.97	5.5572
3.98	5.52661
3.99	5.5118
4	5.50457
4.01	5.51674
4.02	5.52463
4.03	5.52496
4.04	5.50193
4.05	5.5095
4.06	5.48943
4.07	5.48812
4.08	5.49141
4.09	5.47562
4.1	5.49371
4.11	5.47529
4.12	5.49009
4.13	5.48187
4.14	5.47924
4.15	5.47661
4.16	5.46904
4.17	5.46213
4.18	5.45193
4.19	5.48318
4.2	5.46279
4.21	5.45983
4.22	5.44141
4.23	5.44897
4.24	5.447
4.25	5.44075
4.26	5.44831
4.27	5.43483
4.28	5.43351
4.29	5.42068
4.3	5.41016
4.31	5.40983
4.32	5.4016
4.33	5.41081
4.34	5.40292
4.35	5.40785
4.36	5.40292
4.37	5.4118
4.38	5.40391
4.39	5.40029
4.4	5.40687
4.41	5.39239
4.42	5.41246
4.43	5.39272
4.44	5.39305
4.45	5.36838
4.46	5.38483
4.47	5.38187
4.48	5.38647
4.49	5.34634
4.5	5.3493
4.51	5.34042
4.52	5.35094
4.53	5.35061
4.54	5.36706
4.55	5.34404
4.56	5.34831
4.57	5.34963
4.58	5.33417
4.59	5.34568
4.6	5.35456
4.61	5.32594
4.62	5.34897
4.63	5.33779
4.64	5.31673
4.65	5.30292
4.66	5.30621
4.67	5.31048
4.68	5.32496
4.69	5.31969
4.7	5.32331
4.71	5.28647
4.72	5.30949
4.73	5.31838
4.74	5.30061
4.75	5.30423
4.76	5.27561
4.77	5.26114
4.78	5.28844
4.79	5.26541
4.8	5.26607
4.81	5.28384
4.82	5.26969
4.83	5.2789
4.84	5.26772
4.85	5.25127
4.86	5.23811
4.87	5.25752
4.88	5.27166
4.89	5.26607
4.9	5.25587
4.91	5.25423
4.92	5.24995
4.93	5.2391
4.94	5.22528
4.95	5.25818
4.96	5.2391
4.97	5.26081
4.98	5.24239
4.99	5.22923
5	5.21147
5.01	5.22397
5.02	5.23515
5.03	5.20423
5.04	5.20686
5.05	5.22989
5.06	5.20094
5.07	5.19995
5.08	5.18449
5.09	5.19436
5.1	5.20258
5.11	5.17923
5.12	5.18449
5.13	5.19502
5.14	5.16048
5.15	5.19041
5.16	5.19633
5.17	5.19041
5.18	5.18745
5.19	5.17232
5.2	5.17791
5.21	5.17627
5.22	5.17133
5.23	5.17396
5.24	5.18614
5.25	5.17199
5.26	5.16048
5.27	5.15094
5.28	5.14271
5.29	5.11245
5.3	5.1414
5.31	5.171
5.32	5.16114
5.33	5.15225
5.34	5.14074
5.35	5.146
5.36	5.14206
5.37	5.12298
5.38	5.13975
5.39	5.13778
5.4	5.13482
5.41	5.14436
5.42	5.11771
5.43	5.12791
5.44	5.09041
5.45	5.12034
5.46	5.10752
5.47	5.08876
5.48	5.09469
5.49	5.11475
5.5	5.12034
5.51	5.09041
5.52	5.07297
5.53	5.07528
5.54	5.096
5.55	5.10587
5.56	5.08482
5.57	5.06179
5.58	5.08844
5.59	5.09995
5.6	5.09633
5.61	5.0483
5.62	5.06442
5.63	5.05587
5.64	5.06376
5.65	5.05686
5.66	5.07594
5.67	5.06015
5.68	5.02528
5.69	5.05159
5.7	5.0562
5.71	5.03416
5.72	5.03811
5.73	5.03153
5.74	5.05653
5.75	5.06705
5.76	5.04107
5.77	5.03712
5.78	5.03482
5.79	5.03251
5.8	5.03712
5.81	5.02396
5.82	5.02396
5.83	5.02166
5.84	5.02297
5.85	4.99633
5.86	4.99139
5.87	4.99468
5.88	4.99896
5.89	5.00521
5.9	5.01245
5.91	5.00028
5.92	4.99106
5.93	4.99238
5.94	4.99435
5.95	4.99205
5.96	4.97067
5.97	4.9756
5.98	4.97593
5.99	4.98416
6	4.96179
6.01	4.96014
6.02	4.95981
6.03	4.94402
6.04	4.95883
6.05	4.96014
6.06	4.9812
6.07	4.98547
6.08	4.99008
6.09	4.98909
6.1	4.9358
6.11	4.9506
6.12	4.95718
6.13	4.95883
6.14	4.96771
6.15	4.94633
6.16	4.95159
6.17	4.93284
6.18	4.93909
6.19	4.93942
6.2	4.91804
6.21	4.92034
6.22	4.91968
6.23	4.92461
6.24	4.92231
6.25	4.91705
6.26	4.91639
6.27	4.91771
6.28	4.89534
6.29	4.90093
6.3	4.91771
6.31	4.91573
6.32	4.896
6.33	4.89731
6.34	4.91836
6.35	4.90126
6.36	4.92659
6.37	4.9006
6.38	4.89205
6.39	4.89731
6.4	4.88021
6.41	4.9006
6.42	4.89929
6.43	4.91211
6.44	4.87494
6.45	4.87198
6.46	4.86639
6.47	4.87626
6.48	4.89369
6.49	4.85915
6.5	4.88053
6.51	4.85915
6.52	4.87198
6.53	4.86474
6.54	4.85652
6.55	4.86442
6.56	4.83547
6.57	4.85422
6.58	4.86178
6.59	4.83086
6.6	4.83744
6.61	4.81441
6.62	4.82889
6.63	4.82231
6.64	4.8381
6.65	4.84895
6.66	4.8483
6.67	4.82757
6.68	4.82198
6.69	4.83284
6.7	4.82132
6.71	4.83119
6.72	4.81935
6.73	4.82362
6.74	4.83218
6.75	4.83349
6.76	4.80652
6.77	4.81869
6.78	4.80586
6.79	4.81507
6.8	4.80191
6.81	4.77297
6.82	4.79204
6.83	4.80849
6.84	4.78349
6.85	4.78843
6.86	4.78218
6.87	4.78185
6.88	4.77757
6.89	4.77593
6.9	4.7552
6.91	4.77132
6.92	4.78941
6.93	4.77231
6.94	4.76869
6.95	4.80191
6.96	4.7802
6.97	4.79402
6.98	4.79007
6.99	4.79994
7	4.81277
7.01	4.78777
7.02	4.76639
7.03	4.76408
7.04	4.76178
7.05	4.77198
7.06	4.75619
7.07	4.77264
7.08	4.74369
7.09	4.77593
7.1	4.74106
7.11	4.75421
7.12	4.7575
7.13	4.74928
7.14	4.74698
7.15	4.73481
7.16	4.73645
7.17	4.75224
7.18	4.7427
7.19	4.7177
7.2	4.73678
7.21	4.74796
7.22	4.73217
7.23	4.72231
7.24	4.71967
7.25	4.71408
7.26	4.71013
7.27	4.70684
7.28	4.71178
7.29	4.71737
7.3	4.72889
7.31	4.72198
7.32	4.69237
7.33	4.71244
7.34	4.70849
7.35	4.70454
7.36	4.7075
7.37	4.72625
7.38	4.71013
7.39	4.6904
7.4	4.6848
7.41	4.66474
7.42	4.70092
7.43	4.69303
7.44	4.67757
7.45	4.69599
7.46	4.68974
7.47	4.68744
7.48	4.68086
7.49	4.67527
7.5	4.67625
7.51	4.67428
7.52	4.68546
7.53	4.67428
7.54	4.69467
7.55	4.66934
7.56	4.67658
7.57	4.67724
7.58	4.68053
7.59	4.68184
7.6	4.6848
7.61	4.6677
7.62	4.67494
7.63	4.66573
7.64	4.64467
7.65	4.67033
7.66	4.66605
7.67	4.64072
7.68	4.65586
7.69	4.66046
7.7	4.64204
7.71	4.63645
7.72	4.63875
7.73	4.63316
7.74	4.63447
7.75	4.61934
7.76	4.64697
7.77	4.63809
7.78	4.645
7.79	4.62987
7.8	4.645
7.81	4.62
7.82	4.62197
7.83	4.62658
7.84	4.63151
7.85	4.63316
7.86	4.62033
7.87	4.62099
7.88	4.61112
7.89	4.64336
7.9	4.63086
7.91	4.60487
7.92	4.60289
7.93	4.61572
7.94	4.60257
7.95	4.62855
7.96	4.63316
7.97	4.61211
7.98	4.59697
7.99	4.60421
8	4.60585
8.01	4.62362
8.02	4.61572
8.03	4.60191
8.04	4.59566
8.05	4.58743
8.06	4.57954
8.07	4.59533
8.08	4.57493
8.09	4.57921
8.1	4.61013
8.11	4.61309
8.12	4.60651
8.13	4.58842
8.14	4.58447
8.15	4.55651
8.16	4.57033
8.17	4.58316
8.18	4.59171
8.19	4.59401
8.2	4.58151
8.21	4.58151
8.22	4.59335
8.23	4.58513
8.24	4.57658
8.25	4.57066
8.26	4.58217
8.27	4.55355
8.28	4.55191
8.29	4.54171
8.3	4.58579
8.31	4.56835
8.32	4.5723
8.33	4.55717
8.34	4.54895
8.35	4.53809
8.36	4.53612
8.37	4.52691
8.38	4.5746
8.39	4.55454
8.4	4.54927
8.41	4.55158
8.42	4.56638
8.43	4.53184
8.44	4.52131
8.45	4.545
8.46	4.55059
8.47	4.53184
8.48	4.53052
8.49	4.53941
8.5	4.52756
8.51	4.53612
8.52	4.53217
8.53	4.51835
8.54	4.53612
8.55	4.53414
8.56	4.53447
8.57	4.51737
8.58	4.53085
8.59	4.52559
8.6	4.52723
8.61	4.53447
8.62	4.54105
8.63	4.52394
8.64	4.51671
8.65	4.5121
8.66	4.51671
8.67	4.51112
8.68	4.51769
8.69	4.51835
8.7	4.51112
8.71	4.51408
8.72	4.50914
8.73	4.51901
8.74	4.51342
8.75	4.51638
8.76	4.51605
8.77	4.50388
8.78	4.495
8.79	4.51112
8.8	4.5019
8.81	4.49829
8.82	4.49105
8.83	4.49796
8.84	4.52164
8.85	4.49533
8.86	4.47493
8.87	4.47526
8.88	4.47954
8.89	4.49039
8.9	4.47888
8.91	4.47
8.92	4.47131
8.93	4.4723
8.94	4.44927
8.95	4.45322
8.96	4.4871
8.97	4.48151
8.98	4.46967
8.99	4.48447
9	4.49533
9.01	4.45092
9.02	4.46144
9.03	4.46802
9.04	4.4644
9.05	4.47723
9.06	4.46605
9.07	4.44598
9.08	4.46342
9.09	4.45782
9.1	4.46835
9.11	4.46703
9.12	4.46243
9.13	4.45355
9.14	4.44828
9.15	4.45289
9.16	4.45388
9.17	4.4644
9.18	4.45651
9.19	4.44861
9.2	4.43973
9.21	4.45322
9.22	4.43414
9.23	4.42394
9.24	4.44236
9.25	4.43677
9.26	4.42986
9.27	4.43315
9.28	4.44796
9.29	4.42065
9.3	4.4371
9.31	4.43874
9.32	4.45552
9.33	4.42361
9.34	4.40322
9.35	4.43315
9.36	4.4223
9.37	4.42328
9.38	4.43381
9.39	4.43907
9.4	4.4394
9.41	4.42822
9.42	4.45092
9.43	4.42394
9.44	4.43249
9.45	4.41966
9.46	4.40322
9.47	4.4144
9.48	4.4167
9.49	4.42164
9.5	4.4167
9.51	4.41572
9.52	4.4371
9.53	4.42427
9.54	4.42361
9.55	4.41966
9.56	4.42098
9.57	4.43217
9.58	4.41045
9.59	4.4167
9.6	4.39795
9.61	4.38644
9.62	4.40716
9.63	4.42592
9.64	4.40716
9.65	4.42822
9.66	4.39466
9.67	4.39664
9.68	4.4269
9.69	4.39927
9.7	4.40519
9.71	4.39137
9.72	4.38447
9.73	4.38118
9.74	4.39072
9.75	4.38841
9.76	4.37526
9.77	4.3871
9.78	4.37361
9.79	4.38776
9.8	4.37756
9.81	4.40059
9.82	4.40387
9.83	4.38907
9.84	4.37295
9.85	4.37986
9.86	4.37526
9.87	4.39302
9.88	4.39236
9.89	4.36078
9.9	4.40716
9.91	4.38249
9.92	4.35453
9.93	4.36177
9.94	4.38315
9.95	4.37591
9.96	4.37855
9.97	4.37756
9.98	4.37591
9.99	4.36506
10	4.36506
10.01	4.36835
10.02	4.37262
10.03	4.38052
10.04	4.35223
10.05	4.35782
10.06	4.36539
10.07	4.36802
10.08	4.33183
10.09	4.35914
10.1	4.35289
10.11	4.34729
10.12	4.36111
10.13	4.34137
10.14	4.36276
10.15	4.34828
10.16	4.33743
10.17	4.35585
10.18	4.34368
10.19	4.36144
10.2	4.36045
10.21	4.34927
10.22	4.35322
10.23	4.36506
10.24	4.34664
10.25	4.34993
10.26	4.34927
10.27	4.33578
10.28	4.32756
10.29	4.33841
10.3	4.33545
10.31	4.33907
10.32	4.32295
10.33	4.32131
10.34	4.33841
10.35	4.3269
10.36	4.31012
10.37	4.33183
10.38	4.33907
10.39	4.35651
10.4	4.33446
10.41	4.3246
10.42	4.32657
10.43	4.34203
10.44	4.3019
10.45	4.31637
10.46	4.3269
10.47	4.32229
10.48	4.31637
10.49	4.33085
10.5	4.34137
10.51	4.32953
10.52	4.31308
10.53	4.30716
10.54	4.31571
10.55	4.32854
10.56	4.32229
10.57	4.30519
10.58	4.29433
10.59	4.31407
10.6	4.31045
10.61	4.28907
10.62	4.3167
10.63	4.29631
10.64	4.30946
10.65	4.3121
10.66	4.30683
10.67	4.28348
10.68	4.31802
10.69	4.3019
10.7	4.29499
10.71	4.30223
10.72	4.30815
10.73	4.29203
10.74	4.30749
10.75	4.31078
10.76	4.32427
10.77	4.30881
10.78	4.32032
10.79	4.31703
10.8	4.30716
10.81	4.30223
10.82	4.30914
10.83	4.31045
10.84	4.31275
10.85	4.31242
10.86	4.29894
10.87	4.30749
10.88	4.31604
10.89	4.29927
10.9	4.29894
10.91	4.29631
10.92	4.28413
10.93	4.29631
10.94	4.27591
10.95	4.30354
10.96	4.30157
10.97	4.28512
10.98	4.30157
10.99	4.3042
11	4.29565
11.01	4.26966
11.02	4.2815
11.03	4.27525
11.04	4.27295
11.05	4.26308
11.06	4.27098
11.07	4.26802
11.08	4.26374
11.09	4.27624
11.1	4.26834
11.11	4.26538
11.12	4.2542
11.13	4.27163
11.14	4.2667
11.15	4.26078
11.16	4.27492
11.17	4.25979
11.18	4.269
11.19	4.28479
11.2	4.26473
11.21	4.26769
11.22	4.27427
11.23	4.25848
11.24	4.25815
11.25	4.25453
11.26	4.28084
11.27	4.26703
11.28	4.2588
11.29	4.26867
11.3	4.26769
11.31	4.2667
11.32	4.26275
11.33	4.269
11.34	4.2713
11.35	4.2644
11.36	4.2713
11.37	4.26341
11.38	4.26407
11.39	4.269
11.4	4.26374
11.41	4.26933
11.42	4.24532
11.43	4.24762
11.44	4.2542
11.45	4.23841
11.46	4.23117
11.47	4.24992
11.48	4.26407
11.49	4.24236
11.5	4.24729
11.51	4.26374
11.52	4.26045
11.53	4.23841
11.54	4.22525
11.55	4.25913
11.56	4.22492
11.57	4.23019
11.58	4.24663
11.59	4.25255
11.6	4.23512
11.61	4.23347
11.62	4.26407
11.63	4.24071
11.64	4.24565
11.65	4.23907
11.66	4.24762
11.67	4.23413
11.68	4.25453
11.69	4.2394
11.7	4.2292
11.71	4.22361
11.72	4.22065
11.73	4.23051
11.74	4.23446
11.75	4.23117
11.76	4.23413
11.77	4.24762
11.78	4.24269
11.79	4.23249
11.8	4.23249
11.81	4.22624
11.82	4.21045
11.83	4.23545
11.84	4.23512
11.85	4.24926
11.86	4.23413
11.87	4.22229
11.88	4.2269
11.89	4.20782
11.9	4.22558
11.91	4.2292
11.92	4.22097
11.93	4.219
11.94	4.22163
11.95	4.23019
11.96	4.22262
11.97	4.22262
11.98	4.21505
11.99	4.2269
12	4.21308
12.01	4.21143
12.02	4.21834
12.03	4.20815
12.04	4.20255
12.05	4.2144
12.06	4.21209
12.07	4.21407
12.08	4.23709
12.09	4.22032
12.1	4.22262
12.11	4.22394
12.12	4.22854
12.13	4.2088
12.14	4.21209
12.15	4.2088
12.16	4.20551
12.17	4.20617
12.18	4.19499
12.19	4.20124
12.2	4.21209
12.21	4.21801
12.22	4.20617
12.23	4.2292
12.24	4.18775
12.25	4.18347
12.26	4.19663
12.27	4.21505
12.28	4.22591
12.29	4.21143
12.3	4.19268
12.31	4.19597
12.32	4.19861
12.33	4.22426
12.34	4.21209
12.35	4.2144
12.36	4.20716
12.37	4.18347
12.38	4.20058
12.39	4.19005
12.4	4.1838
12.41	4.19828
12.42	4.19992
12.43	4.18183
12.44	4.20815
12.45	4.20551
12.46	4.20288
12.47	4.19268
12.48	4.18841
12.49	4.19203
12.5	4.21275
12.51	4.19893
12.52	4.19367
12.53	4.19992
12.54	4.23183
12.55	4.18282
12.56	4.20157
12.57	4.19268
12.58	4.19597
12.59	4.17229
12.6	4.18216
12.61	4.17525
12.62	4.17393
12.63	4.18742
12.64	4.18578
12.65	4.16308
12.66	4.18018
12.67	4.19137
12.68	4.17887
12.69	4.17163
12.7	4.17459
12.71	4.17097
12.72	4.20617
12.73	4.17591
12.74	4.18578
12.75	4.17854
12.76	4.17887
12.77	4.17393
12.78	4.14202
12.79	4.18183
12.8	4.17393
12.81	4.15683
12.82	4.18216
12.83	4.19367
12.84	4.18676
12.85	4.16801
12.86	4.17393
12.87	4.15058
12.88	4.15551
12.89	4.19499
12.9	4.18347
12.91	4.16538
12.92	4.17163
12.93	4.15847
12.94	4.16768
12.95	4.16275
12.96	4.16242
12.97	4.1667
12.98	4.17459
12.99	4.18742
13	4.16406
13.01	4.17887
13.02	4.16801
13.03	4.14729
13.04	4.15124
13.05	4.16012
13.06	4.14926
13.07	4.16505
13.08	4.15288
13.09	4.169
13.1	4.15979
13.11	4.14564
13.12	4.1588
13.13	4.17031
13.14	4.19137
13.15	4.15749
13.16	4.14893
13.17	4.16637
13.18	4.1588
13.19	4.15781
13.2	4.13512
13.21	4.14235
13.22	4.169
13.23	4.15551
13.24	4.15749
13.25	4.14071
13.26	4.14137
13.27	4.15683
13.28	4.15518
13.29	4.15518
13.3	4.15058
13.31	4.15749
13.32	4.14992
13.33	4.13248
13.34	4.1611
13.35	4.15683
13.36	4.13709
13.37	4.13874
13.38	4.13742
13.39	4.14729
13.4	4.14729
13.41	4.15617
13.42	4.15189
13.43	4.15452
13.44	4.15847
13.45	4.15222
13.46	4.14663
13.47	4.13216
13.48	4.13676
13.49	4.16275
13.5	4.16078
13.51	4.15452
13.52	4.15025
13.53	4.13643
13.54	4.13479
13.55	4.1292
13.56	4.13808
13.57	4.14301
13.58	4.14071
13.59	4.14531
13.6	4.13183
13.61	4.13874
13.62	4.13676
13.63	4.14301
13.64	4.15222
13.65	4.12163
13.66	4.13281
13.67	4.13347
13.68	4.13841
13.69	4.14827
13.7	4.12623
13.71	4.13577
13.72	4.11637
13.73	4.13018
13.74	4.144
13.75	4.119
13.76	4.1236
13.77	4.13874
13.78	4.16176
13.79	4.14795
13.8	4.13314
13.81	4.13413
13.82	4.14104
13.83	4.1611
13.84	4.12952
13.85	4.12558
13.86	4.12623
13.87	4.1236
13.88	4.14301
13.89	4.12788
13.9	4.10748
13.91	4.11373
13.92	4.10946
13.93	4.10913
13.94	4.12327
13.95	4.10189
13.96	4.11308
13.97	4.14597
13.98	4.11077
13.99	4.13446
14	4.13545
14.01	4.11867
14.02	4.10913
14.03	4.13281
14.04	4.12393
14.05	4.11308
14.06	4.10814
14.07	4.13709
14.08	4.13775
14.09	4.12295
14.1	4.11242
14.11	4.10387
14.12	4.13051
14.13	4.11077
14.14	4.11637
14.15	4.12952
14.16	4.12262
14.17	4.12229
14.18	4.14466
14.19	4.14005
14.2	4.12525
14.21	4.11242
14.22	4.11669
14.23	4.11275
14.24	4.11933
14.25	4.12064
14.26	4.14795
14.27	4.11439
14.28	4.11143
14.29	4.0986
14.3	4.11998
14.31	4.08972
14.32	4.09663
14.33	4.1111
14.34	4.09202
14.35	4.08808
14.36	4.09268
14.37	4.10321
14.38	4.1111
14.39	4.11571
14.4	4.11406
14.41	4.09367
14.42	4.11176
14.43	4.11308
14.44	4.12689
14.45	4.10419
14.46	4.08873
14.47	4.11472
14.48	4.11406
14.49	4.11143
14.5	4.10123
14.51	4.12163
14.52	4.09893
14.53	4.10551
14.54	4.13084
14.55	4.11308
14.56	4.09729
14.57	4.1009
14.58	4.10025
14.59	4.09433
14.6	4.09071
14.61	4.10748
14.62	4.10518
14.63	4.11801
14.64	4.09597
14.65	4.07393
14.66	4.08742
14.67	4.10518
14.68	4.10814
14.69	4.10946
14.7	4.10354
14.71	4.10518
14.72	4.09992
14.73	4.0861
14.74	4.10354
14.75	4.09827
14.76	4.11143
14.77	4.09762
14.78	4.09334
14.79	4.10551
14.8	4.09235
14.81	4.08643
14.82	4.09729
14.83	4.10518
14.84	4.1111
14.85	4.09992
14.86	4.11242
14.87	4.08742
14.88	4.09202
14.89	4.09729
14.9	4.10419
14.91	4.08873
14.92	4.09696
14.93	4.09893
14.94	4.09498
14.95	4.09597
14.96	4.08413
14.97	4.07623
14.98	4.11439
14.99	4.0963
15	4.0963
15.01	4.09137
15.02	4.10189
15.03	4.08742
15.04	4.10123
15.05	4.09433
15.06	4.07064
15.07	4.09794
15.08	4.09959
15.09	4.06702
15.1	4.05715
15.11	4.07722
15.12	4.0963
15.13	4.10979
15.14	4.07854
15.15	4.09005
15.16	4.09663
15.17	4.08183
15.18	4.0884
15.19	4.0759
15.2	4.08446
15.21	4.09498
15.22	4.06538
15.23	4.06373
15.24	4.09038
15.25	4.08347
15.26	4.09433
15.27	4.07854
15.28	4.06636
15.29	4.07229
15.3	4.07525
15.31	4.0759
15.32	4.09334
15.33	4.08183
15.34	4.09334
15.35	4.06406
15.36	4.06669
15.37	4.07492
15.38	4.07821
15.39	4.09137
15.4	4.08544
15.41	4.08742
15.42	4.09104
15.43	4.10123
15.44	4.10387
15.45	4.06538
15.46	4.05452
15.47	4.06834
15.48	4.07229
15.49	4.07459
15.5	4.06735
15.51	4.06406
15.52	4.069
15.53	4.06439
15.54	4.069
15.55	4.06472
15.56	4.06604
15.57	4.07623
15.58	4.069
15.59	4.07656
15.6	4.06538
15.61	4.08018
15.62	4.08183
15.63	4.07689
15.64	4.07031
15.65	4.06538
15.66	4.0736
15.67	4.08939
15.68	4.07393
15.69	4.07854
15.7	4.09663
15.71	4.0815
15.72	4.069
15.73	4.07788
15.74	4.08873
15.75	4.0611
15.76	4.069
15.77	4.06669
15.78	4.08018
15.79	4.06373
15.8	4.05781
15.81	4.06472
15.82	4.08544
15.83	4.06932
15.84	4.06406
15.85	4.07722
15.86	4.07788
15.87	4.07261
15.88	4.07689
15.89	4.05781
15.9	4.0634
15.91	4.08775
15.92	4.07064
15.93	4.07196
15.94	4.07459
15.95	4.06242
15.96	4.0838
15.97	4.07788
15.98	4.08775
15.99	4.07459
16	4.05847
16.01	4.0486
16.02	4.05025
16.03	4.03939
16.04	4.04959
16.05	4.05156
16.06	4.04531
16.07	4.05551
16.08	4.0588
16.09	4.05419
16.1	4.06143
16.11	4.05518
16.12	4.06439
16.13	4.08511
16.14	4.05748
16.15	4.0588
16.16	4.07327
16.17	4.06406
16.18	4.05946
16.19	4.07722
16.2	4.05321
16.21	4.07525
16.22	4.06044
16.23	4.07623
16.24	4.04103
16.25	4.03972
16.26	4.05321
16.27	4.05946
16.28	4.05386
16.29	4.02492
16.3	4.04728
16.31	4.06143
16.32	4.0713
16.33	4.05551
16.34	4.05518
16.35	4.0634
16.36	4.07459
16.37	4.0509
16.38	4.04202
16.39	4.04564
16.4	4.0509
16.41	4.0634
16.42	4.06505
16.43	4.04235
16.44	4.02821
16.45	4.03906
16.46	4.06011
16.47	4.06307
16.48	4.03446
16.49	4.05156
16.5	4.0634
16.51	4.04498
16.52	4.03906
16.53	4.05189
16.54	4.03774
16.55	4.03807
16.56	4.04531
16.57	4.06867
16.58	4.05189
16.59	4.044
16.6	4.0509
16.61	4.09005
16.62	4.04268
16.63	4.04728
16.64	4.05682
16.65	4.06077
16.66	4.05847
16.67	4.03709
16.68	4.03018
16.69	4.04531
16.7	4.06209
16.71	4.06834
16.72	4.04071
16.73	4.044
16.74	4.04498
16.75	4.04728
16.76	4.07656
16.77	4.04597
16.78	4.04301
16.79	4.04926
16.8	4.04038
16.81	4.0338
16.82	4.0361
16.83	4.03018
16.84	4.0463
16.85	4.03446
16.86	4.06077
16.87	4.04926
16.88	4.05321
16.89	4.04235
16.9	4.03478
16.91	4.02623
16.92	4.03643
16.93	4.05485
16.94	4.05123
16.95	4.03774
16.96	4.04827
16.97	4.04992
16.98	4.04827
16.99	4.02722
17	4.01998
17.01	4.0565
17.02	4.04038
17.03	4.04301
17.04	4.06604
17.05	4.03709
17.06	4.03314
17.07	4.04959
17.08	4.02788
17.09	4.04038
17.1	4.03873
17.11	4.03478
17.12	4.04728
17.13	4.05123
17.14	4.02689
17.15	4.01932
17.16	4.03413
17.17	4.04564
17.18	4.05222
17.19	4.04432
17.2	4.03215
17.21	4.01209
17.22	4.02755
17.23	4.03347
17.24	4.02755
17.25	4.04663
17.26	4.05979
17.27	4.02492
17.28	4.03774
17.29	4.0338
17.3	4.04235
17.31	4.05781
17.32	4.04663
17.33	4.04136
17.34	4.04301
17.35	4.03182
17.36	4.03478
17.37	4.03709
17.38	4.02163
17.39	4.01439
17.4	4.02853
17.41	4.04761
17.42	4.03676
17.43	4.04038
17.44	4.03742
17.45	4.01801
17.46	4.03215
17.47	4.04597
17.48	4.02952
17.49	4.03281
17.5	4.03742
17.51	4.02426
17.52	4.0157
17.53	4.02294
17.54	4.02853
17.55	4.0486
17.56	4.03248
17.57	3.9963
17.58	4.02492
17.59	4.02426
17.6	4.03051
17.61	4.01044
17.62	4.04268
17.63	4.0259
17.64	4.02459
17.65	4.03117
17.66	4.03478
17.67	4.02919
17.68	4.03149
17.69	4.03709
17.7	4.04959
17.71	4.03807
17.72	4.02853
17.73	4.02163
17.74	4.01801
17.75	4.03742
17.76	4.02492
17.77	4.04564
17.78	4.0384
17.79	4.02393
17.8	4.02492
17.81	4.01801
17.82	4.02492
17.83	4.0134
17.84	4.04367
17.85	4.0611
17.86	4.04498
17.87	4.03347
17.88	4.02393
17.89	4.04136
17.9	4.04005
17.91	4.00978
17.92	4.01768
17.93	4.02393
17.94	4.0259
17.95	4.00748
17.96	4.00748
17.97	4.02557
17.98	4.02524
17.99	4.0213
18	4.01439
18.01	4.02064
18.02	4.02163
18.03	4.01669
18.04	4.01998
18.05	4.03084
18.06	4.02689
18.07	4.02853
18.08	4.0259
18.09	4.02228
18.1	4.00814
18.11	4.04038
18.12	4.04202
18.13	4.03314
18.14	4.01603
18.15	4.02886
18.16	4.01932
18.17	4.03281
18.18	4.04169
18.19	4.03215
18.2	4.02886
18.21	4.02459
18.22	4.03413
18.23	4.00518
18.24	4.02261
18.25	4.04071
18.26	4.03182
18.27	4.0213
18.28	4.01307
18.29	4.00518
18.3	4.01867
18.31	4.04038
18.32	4.01735
18.33	4.00847
18.34	4.01965
18.35	4.00748
18.36	4.00814
18.37	4.00649
18.38	4.01406
18.39	4.0236
18.4	4.03742
18.41	4.0259
18.42	4.01077
18.43	4.00847
18.44	4.00715
18.45	4.02426
18.46	4.0134
18.47	4.01472
18.48	4.01472
18.49	3.99761
18.5	3.99169
18.51	4.00682
18.52	4.0111
18.53	4.03347
18.54	4.02788
18.55	4.00518
18.56	4.00551
18.57	4.00123
18.58	4.01636
18.59	4.00386
18.6	4.00024
18.61	4.01209
18.62	4.01801
18.63	4.00156
18.64	4.02788
18.65	3.98478
18.66	3.9884
18.67	4.00913
18.68	4.00945
18.69	4.02492
18.7	4.02393
18.71	4.01669
18.72	4.00452
18.73	4.01899
18.74	4.05979
18.75	4.03939
18.76	4.02426
18.77	4.0134
18.78	4.01373
18.79	4.01702
18.8	4.00255
18.81	4.02393
18.82	4.01011
18.83	4.03084
18.84	4.01307
18.85	4.0259
18.86	4.01867
18.87	4.01143
18.88	4.02195
18.89	3.99926
18.9	4.01406
18.91	4.00715
18.92	4.01834
18.93	4.00978
18.94	4.02097
18.95	4.01077
18.96	3.99301
18.97	4.01373
18.98	4.01077
18.99	4.00748
19	4.0361
19.01	4.01801
19.02	4.01439
19.03	4.03446
19.04	4.01768
19.05	4.01538
19.06	4.00814
19.07	3.99597
19.08	4.00584
19.09	3.99926
19.1	4.01932
19.11	4.00715
19.12	4.00715
19.13	4.01472
19.14	4.0032
19.15	3.99301
19.16	3.99235
19.17	4.00419
19.18	4.01669
19.19	4.00353
19.2	3.99893
19.21	4.01472
19.22	4.00814
19.23	4.02557
19.24	3.99695
19.25	4.00649
19.26	3.99761
19.27	4.00288
19.28	3.9963
19.29	3.99991
19.3	4.00748
19.31	3.99663
19.32	4.00485
19.33	4.00123
19.34	3.99926
19.35	4.0134
19.36	3.99794
19.37	3.98149
19.38	3.98807
19.39	4.00452
19.4	3.99038
19.41	3.98906
19.42	3.98314
19.43	3.99301
19.44	4.00945
19.45	4.01044
19.46	3.99893
19.47	3.99005
19.48	4.00847
19.49	4.00616
19.5	4.00255
19.51	3.99663
19.52	4.0032
19.53	4.01406
19.54	3.99794
19.55	4.02031
19.56	4.02952
19.57	3.99991
19.58	3.99926
19.59	3.99794
19.6	4.0157
19.61	4.01044
19.62	3.99663
19.63	4.00123
19.64	3.99399
19.65	4.0009
19.66	4.01077
19.67	4.0111
19.68	3.99564
19.69	3.99498
19.7	4.01505
19.71	3.99399
19.72	4.02492
19.73	4.01965
19.74	4.00715
19.75	4.0111
19.76	3.98873
19.77	3.99663
19.78	4.01044
19.79	4.01768
19.8	4.00649
19.81	4.02195
19.82	4.00057
19.83	3.99794
19.84	3.99268
19.85	3.9963
19.86	3.99432
19.87	4.00682
19.88	3.99794
19.89	3.99695
19.9	4.00123
19.91	3.98709
19.92	3.99531
19.93	3.97722
19.94	3.99136
19.95	3.99399
19.96	4.0009
19.97	3.96932
19.98	3.99991
19.99	4.00518
20	4.01538
20.01	3.98215
20.02	3.98906
20.03	3.99794
20.04	3.99926
20.05	3.9657
20.06	3.98281
20.07	4.01242
20.08	4.00057
20.09	3.9884
20.1	3.98676
20.11	3.99761
20.12	3.99103
20.13	4.00847
20.14	4.00288
20.15	3.99432
20.16	4.01242
20.17	4.02393
20.18	4.01307
20.19	4.01735
20.2	4.00255
20.21	3.99893
20.22	4.02393
20.23	3.99564
20.24	3.98215
20.25	3.98347
20.26	4.00386
20.27	4.0088
20.28	4.00518
20.29	3.99038
20.3	3.99926
20.31	3.99202
20.32	3.97459
20.33	3.9838
20.34	4.00255
20.35	3.97952
20.36	3.96735
20.37	3.98347
20.38	3.98314
20.39	4.00814
20.4	3.98972
20.41	4.00485
20.42	3.99794
20.43	4.00288
20.44	4.01274
20.45	4.00024
20.46	4.00715
20.47	3.98741
20.48	3.99136
20.49	3.99432
20.5	3.98972
20.51	3.99268
20.52	3.99103
20.53	3.99926
20.54	4.01636
20.55	4.00156
20.56	3.97886
20.57	4.01472
20.58	3.9861
20.59	3.98741
20.6	3.99827
20.61	3.97689
20.62	3.97886
20.63	3.98741
20.64	3.98676
20.65	4.00781
20.66	3.98478
20.67	3.98511
20.68	4.0009
20.69	3.99728
20.7	3.9861
20.71	3.99235
20.72	3.99301
20.73	3.99498
20.74	3.98149
20.75	3.99827
20.76	3.97623
20.77	3.9861
20.78	3.99334
20.79	3.99268
20.8	3.99728
20.81	3.98643
20.82	3.99597
20.83	3.98511
20.84	3.98084
20.85	3.98149
20.86	3.98709
20.87	3.98939
20.88	4.01143
20.89	3.98577
20.9	3.99005
20.91	4.01077
20.92	3.9861
20.93	3.99465
20.94	3.98544
20.95	3.98116
20.96	3.98577
20.97	3.98807
20.98	3.99991
20.99	3.99399
21	3.99268
21.01	3.98215
21.02	3.97459
21.03	3.97393
21.04	3.97426
21.05	3.98741
21.06	3.98478
21.07	3.9759
21.08	3.98544
21.09	3.98412
21.1	3.96439
21.11	3.96768
21.12	3.98676
21.13	4.00057
21.14	3.98445
21.15	3.97919
21.16	3.98478
21.17	3.98116
21.18	3.99005
21.19	3.97294
21.2	3.97623
21.21	3.98281
21.22	3.9782
21.23	3.97689
21.24	3.97393
21.25	4.00386
21.26	3.99005
21.27	3.98873
21.28	3.98774
21.29	3.95945
21.3	3.95485
21.31	3.97393
21.32	3.98478
21.33	3.97985
21.34	3.9736
21.35	3.98314
21.36	3.9713
21.37	3.96505
21.38	3.97459
21.39	3.97459
21.4	4.00353
21.41	3.98412
21.42	3.97491
21.43	3.9907
21.44	3.9963
21.45	3.96866
21.46	3.97491
21.47	3.9782
21.48	3.9611
21.49	3.96472
21.5	3.97952
21.51	3.98445
21.52	4.00024
21.53	3.97228
21.54	3.98577
21.55	4.00222
21.56	3.99991
21.57	3.99235
21.58	3.98478
21.59	3.97459
21.6	3.96735
21.61	3.97162
21.62	3.98149
21.63	3.97491
21.64	3.99399
21.65	4.00057
21.66	3.9907
21.67	3.96307
21.68	3.97162
21.69	3.98709
21.7	4.00518
21.71	3.98478
21.72	3.97919
21.73	3.98511
21.74	4.0009
21.75	4.00386
21.76	3.98972
21.77	3.97228
21.78	3.99268
21.79	3.98676
21.8	3.98347
21.81	4.0009
21.82	3.98182
21.83	3.9611
21.84	3.96011
21.85	3.96143
21.86	3.94893
21.87	3.96702
21.88	3.96735
21.89	3.97755
21.9	3.9736
21.91	3.96241
21.92	3.98149
21.93	3.98709
21.94	3.97557
21.95	3.98248
21.96	3.9907
21.97	3.97294
21.98	3.97228
21.99	3.96636
22	3.96373
22.01	3.96505
22.02	3.97162
22.03	3.99038
22.04	3.98873
22.05	3.97459
22.06	3.97557
22.07	3.99399
22.08	3.99366
22.09	3.97985
22.1	3.96208
22.11	3.98248
22.12	3.97459
22.13	3.9986
22.14	3.97952
22.15	3.97327
22.16	3.95518
22.17	3.97787
22.18	3.98084
22.19	3.96176
22.2	3.96143
22.21	3.96833
22.22	3.97952
22.23	3.97952
22.24	3.96932
22.25	3.96801
22.26	3.9736
22.27	3.98939
22.28	3.96735
22.29	3.96307
22.3	3.97886
22.31	3.95847
22.32	3.97261
22.33	3.9907
22.34	3.98774
22.35	3.98018
22.36	3.99268
22.37	3.9657
22.38	3.98807
22.39	3.98478
22.4	3.96932
22.41	3.96143
22.42	3.9861
22.43	3.96965
22.44	3.97064
22.45	3.98478
22.46	3.9736
22.47	3.97064
22.48	3.94399
22.49	3.97491
22.5	3.98051
22.51	3.97228
22.52	3.98972
22.53	3.98676
22.54	3.98643
22.55	3.96669
22.56	3.96537
22.57	3.94531
22.58	3.95912
22.59	3.99301
22.6	3.96044
22.61	3.98347
22.62	3.98018
22.63	3.95945
22.64	3.96965
22.65	3.98314
22.66	3.96932
22.67	3.96307
22.68	3.9884
22.69	3.9713
22.7	3.97656
22.71	3.97623
22.72	3.98116
22.73	3.97524
22.74	3.97656
22.75	3.98873
22.76	3.97787
22.77	3.96833
22.78	3.97228
22.79	3.95649
22.8	3.97031
22.81	3.97261
22.82	3.96702
22.83	3.95945
22.84	3.97327
22.85	3.97393
22.86	3.9759
22.87	3.95386
22.88	3.96406
22.89	3.94991
22.9	3.96044
22.91	3.96603
22.92	3.97524
22.93	3.98774
22.94	3.9759
22.95	3.97524
22.96	3.96768
22.97	3.95189
22.98	3.98281
22.99	3.95123
23	3.9657
23.01	3.97853
23.02	3.97952
23.03	3.98018
23.04	3.95945
23.05	3.94958
23.06	3.94629
23.07	3.97097
23.08	3.99959
23.09	3.98807
23.1	3.98182
23.11	3.95945
23.12	3.97853
23.13	3.96077
23.14	3.9759
23.15	3.97722
23.16	3.96735
23.17	3.96866
23.18	3.98478
23.19	3.95715
23.2	3.97853
23.21	3.96406
23.22	3.96241
23.23	3.99038
23.24	3.97656
23.25	3.96307
23.26	3.96143
23.27	3.96143
23.28	3.97195
23.29	3.97228
23.3	3.96899
23.31	3.98544
23.32	3.97853
23.33	3.97722
23.34	3.96439
23.35	3.94465
23.36	3.9532
23.37	3.9861
23.38	3.95912
23.39	3.96768
23.4	3.96801
23.41	3.97294
23.42	3.96866
23.43	3.97524
23.44	3.96143
23.45	3.97557
23.46	3.97886
23.47	3.97162
23.48	3.96176
23.49	3.94958
23.5	3.97097
23.51	3.97689
23.52	3.95847
23.53	3.96373
23.54	3.97195
23.55	3.97064
23.56	3.97787
23.57	3.97623
23.58	3.97491
23.59	3.95814
23.6	3.94301
23.61	3.95583
23.62	3.97228
23.63	3.95912
23.64	3.96011
23.65	3.96801
23.66	3.96833
23.67	3.96899
23.68	3.98774
23.69	3.96176
23.7	3.97886
23.71	3.97524
23.72	3.95978
23.73	3.95485
23.74	3.95024
23.75	3.95748
23.76	3.96176
23.77	3.9509
23.78	3.95057
23.79	3.9532
23.8	3.96406
23.81	3.96735
23.82	3.9634
23.83	3.97426
23.84	3.95814
23.85	3.95781
23.86	3.94761
23.87	3.95715
23.88	3.95649
23.89	3.93347
23.9	3.95156
23.91	3.96439
23.92	3.98347
23.93	3.98018
23.94	3.9588
23.95	3.96011
23.96	3.94103
23.97	3.96143
23.98	3.96899
23.99	3.97031
24	3.95057
24.01	3.95616
24.02	3.95814
24.03	3.95978
24.04	3.94366
24.05	3.96735
24.06	3.9782
24.07	3.94597
24.08	3.95123
24.09	3.93511
24.1	3.95682
24.11	3.96143
24.12	3.98051
24.13	3.9532
24.14	3.95649
24.15	3.96932
24.16	3.97656
24.17	3.96176
24.18	3.98018
24.19	3.9509
24.2	3.97031
24.21	3.9634
24.22	3.95649
24.23	3.9713
24.24	3.95287
24.25	3.94136
24.26	3.9509
24.27	3.97623
24.28	3.97393
24.29	3.96669
24.3	3.95386
24.31	3.9634
24.32	3.94432
24.33	3.97426
24.34	3.9759
24.35	3.95353
24.36	3.95222
24.37	3.9407
24.38	3.95945
24.39	3.95978
24.4	3.96735
24.41	3.96833
24.42	3.94761
24.43	3.96011
24.44	3.95156
24.45	3.95748
24.46	3.94629
24.47	3.94037
24.48	3.95715
24.49	3.96077
24.5	3.97031
24.51	3.95616
24.52	3.95781
24.53	3.95682
24.54	3.96932
24.55	3.96077
24.56	3.95189
24.57	3.94432
24.58	3.97557
24.59	3.96044
24.6	3.95386
24.61	3.95551
24.62	3.95123
24.63	3.95189
24.64	3.94366
24.65	3.9838
24.66	3.96768
24.67	3.95287
24.68	3.96406
24.69	3.96537
24.7	3.96866
24.71	3.97031
24.72	3.97459
24.73	3.96011
24.74	3.97623
24.75	3.96143
24.76	3.96537
24.77	3.9634
24.78	3.96077
24.79	3.94564
24.8	3.9588
24.81	3.96373
24.82	3.94301
24.83	3.94991
24.84	3.9486
24.85	3.96241
24.86	3.95353
24.87	3.93577
24.88	3.95057
24.89	3.95945
24.9	3.96044
24.91	3.98281
24.92	3.94531
24.93	3.97689
24.94	3.98445
24.95	3.95386
24.96	3.95551
24.97	3.95222
24.98	3.95518
24.99	3.9657
25	3.96307
25.01	3.9611
25.02	3.94958
25.03	3.94399
25.04	3.94301
25.05	3.93807
25.06	3.92886
25.07	3.95057
25.08	3.93314
25.09	3.95485
25.1	3.94827
25.11	3.97491
25.12	3.96044
25.13	3.95254
25.14	3.95945
25.15	3.96866
25.16	3.94531
25.17	3.96373
25.18	3.94794
25.19	3.92886
25.2	3.94564
25.21	3.95222
25.22	3.9259
25.23	3.95222
25.24	3.9611
25.25	3.95024
25.26	3.94268
25.27	3.94169
25.28	3.93972
25.29	3.94629
25.3	3.96208
25.31	3.9384
25.32	3.95682
25.33	3.94136
25.34	3.96472
25.35	3.9611
25.36	3.94991
25.37	3.96406
25.38	3.96603
25.39	3.96472
25.4	3.94629
25.41	3.93248
25.42	3.9532
25.43	3.94432
25.44	3.95057
25.45	3.95287
25.46	3.96702
25.47	3.9588
25.48	3.95945
25.49	3.95353
25.5	3.95649
25.51	3.95156
25.52	3.9657
25.53	3.95945
25.54	3.96044
25.55	3.95452
25.56	3.96307
25.57	3.94827
25.58	3.95682
25.59	3.9634
25.6	3.94235
25.61	3.94695
25.62	3.95419
25.63	3.98215
25.64	3.94728
25.65	3.94629
25.66	3.94926
25.67	3.94695
25.68	3.93972
25.69	3.94794
25.7	3.95156
25.71	3.96603
25.72	3.94958
25.73	3.95715
25.74	3.94827
25.75	3.94893
25.76	3.93939
25.77	3.92557
25.78	3.96735
25.79	3.94268
25.8	3.95222
25.81	3.9407
25.82	3.94629
25.83	3.95287
25.84	3.95057
25.85	3.94761
25.86	3.95386
25.87	3.95485
25.88	3.94926
25.89	3.95649
25.9	3.95452
25.91	3.94531
25.92	3.94268
25.93	3.93774
25.94	3.93182
25.95	3.93116
25.96	3.94926
25.97	3.94695
25.98	3.95715
25.99	3.96044
26	3.9532
26.01	3.94991
26.02	3.95222
26.03	3.95551
26.04	3.9611
26.05	3.95583
26.06	3.97491
26.07	3.96044
26.08	3.94136
26.09	3.94597
26.1	3.93643
26.11	3.97195
26.12	3.95551
26.13	3.95814
26.14	3.95945
26.15	3.94004
26.16	3.93972
26.17	3.95814
26.18	3.96866
26.19	3.95682
26.2	3.96669
26.21	3.96143
26.22	3.95057
26.23	3.9486
26.24	3.9509
26.25	3.94564
26.26	3.94564
26.27	3.91932
26.28	3.91899
26.29	3.94728
26.3	3.94268
26.31	3.94794
26.32	3.91504
26.33	3.94004
26.34	3.93873
26.35	3.94268
26.36	3.94597
26.37	3.95386
26.38	3.95847
26.39	3.94202
26.4	3.94695
26.41	3.95189
26.42	3.94893
26.43	3.93972
26.44	3.94958
26.45	3.9407
26.46	3.9486
26.47	3.93972
26.48	3.93675
26.49	3.9532
26.5	3.95189
26.51	3.96472
26.52	3.96965
26.53	3.95814
26.54	3.96768
26.55	3.91866
26.56	3.95024
26.57	3.95978
26.58	3.96768
26.59	3.93774
26.6	3.94004
26.61	3.95518
26.62	3.93248
26.63	3.94827
26.64	3.95419
26.65	3.94629
26.66	3.94728
26.67	3.93445
26.68	3.94465
26.69	3.96373
26.7	3.95682
26.71	3.9305
26.72	3.9361
26.73	3.93478
26.74	3.92722
26.75	3.94037
26.76	3.96176
26.77	3.93873
26.78	3.93873
26.79	3.9588
26.8	3.96702
26.81	3.9588
26.82	3.94827
26.83	3.95123
26.84	3.95386
26.85	3.95682
26.86	3.94432
26.87	3.96439
26.88	3.95057
26.89	3.95189
26.9	3.93018
26.91	3.94465
26.92	3.95616
26.93	3.96241
26.94	3.97097
26.95	3.94465
26.96	3.94202
26.97	3.93643
26.98	3.93314
26.99	3.92886
27	3.95254
27.01	3.92754
27.02	3.97097
27.03	3.95814
27.04	3.94432
27.05	3.95485
27.06	3.9532
27.07	3.94004
27.08	3.91702
27.09	3.95814
27.1	3.96044
27.11	3.9305
27.12	3.94235
27.13	3.94004
27.14	3.91077
27.15	3.93939
27.16	3.94794
27.17	3.92656
27.18	3.93083
27.19	3.96899
27.2	3.93018
27.21	3.92853
27.22	3.94926
27.23	3.95485
27.24	3.96768
27.25	3.95912
27.26	3.95649
27.27	3.95814
27.28	3.93939
27.29	3.95057
27.3	3.96505
27.31	3.93544
27.32	3.92689
27.33	3.93708
27.34	3.95057
27.35	3.93807
27.36	3.95353
27.37	3.94662
27.38	3.94728
27.39	3.9282
27.4	3.9588
27.41	3.96077
27.42	3.94926
27.43	3.95649
27.44	3.95386
27.45	3.93972
27.46	3.95748
27.47	3.93116
27.48	3.93708
27.49	3.92327
27.5	3.94235
27.51	3.93116
27.52	3.95123
27.53	3.95551
27.54	3.95287
27.55	3.93643
27.56	3.94235
27.57	3.94991
27.58	3.93708
27.59	3.93939
27.6	3.93347
27.61	3.93215
27.62	3.94794
27.63	3.94893
27.64	3.94531
27.65	3.94695
27.66	3.92985
27.67	3.92557
27.68	3.92557
27.69	3.95123
27.7	3.94498
27.71	3.9657
27.72	3.95452
27.73	3.92919
27.74	3.94169
27.75	3.94794
27.76	3.95222
27.77	3.96636
27.78	3.96077
27.79	3.94333
27.8	3.94893
27.81	3.94991
27.82	3.94235
27.83	3.94465
27.84	3.9611
27.85	3.91735
27.86	3.918
27.87	3.94695
27.88	3.94498
27.89	3.9384
27.9	3.94301
27.91	3.93708
27.92	3.95485
27.93	3.93379
27.94	3.93675
27.95	3.95156
27.96	3.95748
27.97	3.94531
27.98	3.91998
27.99	3.93675
28	3.95024
28.01	3.9384
28.02	3.9384
28.03	3.97097
28.04	3.96077
28.05	3.92195
28.06	3.93478
28.07	3.94629
28.08	3.94531
28.09	3.94629
28.1	3.96011
28.11	3.93379
28.12	3.94202
28.13	3.93347
28.14	3.93643
28.15	3.89827
28.16	3.90616
28.17	3.94662
28.18	3.96307
28.19	3.93774
28.2	3.93708
28.21	3.94366
28.22	3.94662
28.23	3.92689
28.24	3.94169
28.25	3.94794
28.26	3.92952
28.27	3.91833
28.28	3.94761
28.29	3.95616
28.3	3.94794
28.31	3.92985
28.32	3.94926
28.33	3.94991
28.34	3.91932
28.35	3.93182
28.36	3.96077
28.37	3.93149
28.38	3.92162
28.39	3.94465
28.4	3.93347
28.41	3.94037
28.42	3.91965
28.43	3.93873
28.44	3.92886
28.45	3.96176
28.46	3.94399
28.47	3.94564
28.48	3.94432
28.49	3.9111
28.5	3.91899
28.51	3.94333
28.52	3.96011
28.53	3.96406
28.54	3.92689
28.55	3.95485
28.56	3.94991
28.57	3.92557
28.58	3.94695
28.59	3.93939
28.6	3.95353
28.61	3.94465
28.62	3.93116
28.63	3.94136
28.64	3.93741
28.65	3.94366
28.66	3.9259
28.67	3.91241
28.68	3.93215
28.69	3.95847
28.7	3.94366
28.71	3.93379
28.72	3.93314
28.73	3.94202
28.74	3.91965
28.75	3.92623
28.76	3.93906
28.77	3.95518
28.78	3.93873
28.79	3.92064
28.8	3.93511
28.81	3.94695
28.82	3.95485
28.83	3.92228
28.84	3.93116
28.85	3.95583
28.86	3.93708
28.87	3.91965
28.88	3.92327
28.89	3.93083
28.9	3.93478
28.91	3.94827
28.92	3.9384
28.93	3.9259
28.94	3.91307
28.95	3.92787
28.96	3.9259
28.97	3.95912
28.98	3.94531
28.99	3.93149
29	3.94136
29.01	3.92656
29.02	3.93215
29.03	3.93018
29.04	3.91965
29.05	3.92754
29.06	3.93018
29.07	3.94037
29.08	3.95715
29.09	3.95748
29.1	3.93577
29.11	3.94629
29.12	3.94333
29.13	3.96274
29.14	3.93379
29.15	3.93906
29.16	3.9407
29.17	3.93281
29.18	3.93116
29.19	3.93511
29.2	3.93774
29.21	3.93215
29.22	3.93347
29.23	3.93774
29.24	3.93577
29.25	3.94564
29.26	3.94893
29.27	3.94235
29.28	3.94662
29.29	3.95518
29.3	3.92886
29.31	3.94662
29.32	3.93182
29.33	3.93577
29.34	3.9407
29.35	3.94235
29.36	3.95452
29.37	3.93675
29.38	3.93314
29.39	3.93741
29.4	3.91504
29.41	3.92919
29.42	3.94004
29.43	3.93116
29.44	3.94531
29.45	3.95156
29.46	3.94564
29.47	3.94465
29.48	3.95024
29.49	3.93248
29.5	3.92294
29.51	3.94958
29.52	3.95518
29.53	3.9259
29.54	3.91932
29.55	3.9282
29.56	3.92853
29.57	3.93182
29.58	3.9305
29.59	3.94498
29.6	3.9259
29.61	3.9259
29.62	3.93939
29.63	3.94794
29.64	3.95583
29.65	3.94366
29.66	3.92557
29.67	3.93018
29.68	3.92656
29.69	3.95583
29.7	3.94169
29.71	3.93774
29.72	3.9305
29.73	3.94202
29.74	3.92524
29.75	3.92261
29.76	3.9384
29.77	3.92754
29.78	3.93873
29.79	3.94169
29.8	3.93544
29.81	3.94399
29.82	3.94103
29.83	3.93445
29.84	3.93215
29.85	3.94662
29.86	3.93774
29.87	3.92162
29.88	3.92524
29.89	3.93675
29.9	3.94827
29.91	3.94991
29.92	3.92096
29.93	3.9305
29.94	3.94366
29.95	3.93939
29.96	3.95353
29.97	3.93478
29.98	3.94827
29.99	3.9611
30	3.93873
