"BIO-KINE ASCII FILE"
"_COMMENT"	"MOS-500 Spectrometer"
"_COMMENT"	"Kinetics measurement"
"_COMMENT"	"Y Unit : Volt,  X Unit : s"
"_COMMENT"	"Excitation wavelength : 380 nm"
"_COMMENT"	"Fentes bandwidth =  1 nm"
"_COMMENT"	"HV= 1000V"
"_COMMENT"	"Timebase  1 =  .01 s   5001 pts"
"_SFM"	"SFM-400 /S  Advanced mode"
"_SFM"	"Ratio : S1: 2.5, S2: 0, S3: 0, S4: 1"
"_SFM"	"Content : S1: , S2: , S3: , S4:"
"_SFM"	"Concentration : S1: , S2: , S3: , S4:"
"_SFM"	"Total volume : 209 µl  Flow : 3.5 mL/s"
"_SFM"	"Acquisition start :  10 ms before stop"
"_SFM"	"cuve=FC-15, s1=10 ml , s2=10 ml , s3=10 ml , s4=1.9 ml"
"_UNITX"	"s"
"_UNITY"	"Volt"
"_DELTAX"	0
"_DATA"
1e-300	2.90021
0.01	2.88179
0.02	2.86961
0.03	2.90942
0.04	2.95482
0.05	2.9808
0.06	3.00679
0.07	3.00909
0.08	3.03212
0.09	3.0785
0.1	3.07719
0.11	3.09232
0.12	3.0739
0.13	3.04298
0.14	3.08607
0.15	3.12752
0.16	3.10778
0.17	3.09133
0.18	3.08903
0.19	3.07258
0.2	3.09067
0.21	3.08706
0.22	3.07127
0.23	3.12554
0.24	3.13278
0.25	3.11271
0.26	3.091
0.27	3.11107
0.28	3.0864
0.29	3.14364
0.3	3.08048
0.31	3.09923
0.32	3.11864
0.33	3.11765
0.34	3.1216
0.35	3.09002
0.36	3.06337
0.37	3.10975
0.38	3.10943
0.39	3.11699
0.4	3.13081
0.41	3.1114
0.42	3.0966
0.43	3.09396
0.44	3.10943
0.45	3.0887
0.46	3.10811
0.47	3.09956
0.48	3.09561
0.49	3.10646
0.5	3.1262
0.51	3.09594
0.52	3.11403
0.53	3.10252
0.54	3.0966
0.55	3.09594
0.56	3.10515
0.57	3.07587
0.58	3.08113
0.59	3.08508
0.6	3.07752
0.61	3.06107
0.62	3.0841
0.63	3.10975
0.64	3.10943
0.65	3.08607
0.66	3.09923
0.67	3.07752
0.68	3.07916
0.69	3.09594
0.7	3.11436
0.71	3.12357
0.72	3.091
0.73	3.0785
0.74	3.08475
0.75	3.07488
0.76	3.09923
0.77	3.11666
0.78	3.10021
0.79	3.12193
0.8	3.12028
0.81	3.11304
0.82	3.08739
0.83	3.09791
0.84	3.07587
0.85	3.10087
0.86	3.07982
0.87	3.06008
0.88	3.09528
0.89	3.08804
0.9	3.07521
0.91	3.07225
0.92	3.07982
0.93	3.0864
0.94	3.08377
0.95	3.0966
0.96	3.07456
0.97	3.08377
0.98	3.12785
0.99	3.11765
1	3.09462
1.01	3.08377
1.02	3.08706
1.03	3.10614
1.04	3.07916
1.05	3.04199
1.06	3.09692
1.07	3.10778
1.08	3.10285
1.09	3.09923
1.1	3.09067
1.11	3.07258
1.12	3.09528
1.13	3.09824
1.14	3.11962
1.15	3.09923
1.16	3.07488
1.17	3.08804
1.18	3.11403
1.19	3.0785
1.2	3.07225
1.21	3.07686
1.22	3.06337
1.23	3.10087
1.24	3.11107
1.25	3.10778
1.26	3.08245
1.27	3.07883
1.28	3.05877
1.29	3.066
1.3	3.08739
1.31	3.09824
1.32	3.08212
1.33	3.05679
1.34	3.04363
1.35	3.09298
1.36	3.08311
1.37	3.05778
1.38	3.08837
1.39	3.01699
1.4	3.05153
1.41	3.07554
1.42	3.10219
1.43	3.08541
1.44	3.07752
1.45	3.066
1.46	3.06962
1.47	3.10186
1.48	3.06534
1.49	3.05548
1.5	3.06534
1.51	3.05877
1.52	3.06666
1.53	3.05416
1.54	3.05581
1.55	3.10153
1.56	3.07785
1.57	3.1035
1.58	3.11699
1.59	3.07686
1.6	3.04429
1.61	3.05811
1.62	3.0785
1.63	3.08475
1.64	3.1035
1.65	3.07423
1.66	3.0762
1.67	3.07488
1.68	3.05153
1.69	3.07258
1.7	3.12916
1.71	3.10021
1.72	3.066
1.73	3.05087
1.74	3.06765
1.75	3.04067
1.76	3.02324
1.77	3.04363
1.78	3.0387
1.79	3.09692
1.8	3.07653
1.81	3.06896
1.82	3.05548
1.83	3.05219
1.84	3.0364
1.85	3.05219
1.86	3.03705
1.87	3.06173
1.88	3.04627
1.89	3.05054
1.9	3.05449
1.91	3.04923
1.92	3.05942
1.93	3.07456
1.94	3.04133
1.95	3.03113
1.96	3.03673
1.97	3.07192
1.98	3.06337
1.99	3.0364
2	3.0785
2.01	3.04857
2.02	3.05416
2.03	3.03344
2.04	3.04594
2.05	3.06831
2.06	3.06929
2.07	3.06173
2.08	3.05975
2.09	3.04002
2.1	3.06041
2.11	3.05646
2.12	3.05317
2.13	3.02883
2.14	3.06304
2.15	3.06107
2.16	3.05054
2.17	3.0512
2.18	3.05778
2.19	3.04133
2.2	3.05942
2.21	3.05942
2.22	3.066
2.23	3.05054
2.24	3.04462
2.25	3.06271
2.26	3.02719
2.27	3.03936
2.28	3.03936
2.29	3.01534
2.3	3.04758
2.31	3.09791
2.32	3.04166
2.33	3.01765
2.34	3.02751
2.35	3.04692
2.36	3.07521
2.37	3.0785
2.38	3.04002
2.39	3.02883
2.4	3.0387
2.41	3.01633
2.42	3.01896
2.43	3.05515
2.44	3.07521
2.45	3.04166
2.46	3.08146
2.47	3.07423
2.48	3.04462
2.49	3.03113
2.5	3.06534
2.51	3.03837
2.52	3.02258
2.53	3.01699
2.54	3.03442
2.55	3.01863
2.56	3.06107
2.57	3.02126
2.58	3.02094
2.59	3.05087
2.6	3.02521
2.61	3.02817
2.62	3.04298
2.63	3.04824
2.64	3.03475
2.65	3.01469
2.66	3.02982
2.67	3.02686
2.68	3.03015
2.69	3.04561
2.7	3.0637
2.71	3.0285
2.72	3.0114
2.73	3.04528
2.74	3.03015
2.75	3.04988
2.76	3.03837
2.77	3.02817
2.78	3.04265
2.79	3.05909
2.8	3.03607
2.81	3.04791
2.82	3.00021
2.83	3.02751
2.84	3.02982
2.85	3.07653
2.86	3.03541
2.87	3.04692
2.88	3.01501
2.89	3.03541
2.9	3.05087
2.91	3.02324
2.92	3.03442
2.93	3.06271
2.94	3.04627
2.95	3.03344
2.96	3.03442
2.97	3.00186
2.98	3.01765
2.99	3.01469
3	3.05909
3.01	3.06633
3.02	3.02686
3.03	2.99495
3.04	3.02751
3.05	3.0614
3.06	2.99659
3.07	3.01929
3.08	3.01436
3.09	3.03771
3.1	3.04495
3.11	3.0308
3.12	3.05679
3.13	3.04034
3.14	3.03376
3.15	3.06074
3.16	3.0433
3.17	3.02587
3.18	3.02192
3.19	3.01436
3.2	3.03212
3.21	3.0285
3.22	3.07587
3.23	3.04528
3.24	3.02423
3.25	3.03344
3.26	3.01501
3.27	3.00482
3.28	3.00778
3.29	3.03771
3.3	3.0433
3.31	3.07028
3.32	3.04791
3.33	3.01699
3.34	3.00449
3.35	3.05383
3.36	3.01172
3.37	2.991
3.38	3.0183
3.39	3.01995
3.4	3.02982
3.41	3.03048
3.42	3.01863
3.43	3.0262
3.44	3.02784
3.45	3.04265
3.46	3.02061
3.47	3.03936
3.48	3.07357
3.49	3.03245
3.5	3.0285
3.51	3.01172
3.52	3.02982
3.53	3.06337
3.54	3.02126
3.55	3.02324
3.56	2.99692
3.57	3.00054
3.58	3.02982
3.59	3.01107
3.6	2.99791
3.61	3.02324
3.62	3.04561
3.63	3.01337
3.64	3.00547
3.65	3.01469
3.66	3.02192
3.67	3.00251
3.68	3.01666
3.69	2.99988
3.7	3.03442
3.71	3.02225
3.72	3.05087
3.73	2.9989
3.74	3.04692
3.75	3.016
3.76	3.04692
3.77	3.01567
3.78	3.00153
3.79	3.02488
3.8	3.02949
3.81	3.02521
3.82	3.00679
3.83	2.99297
3.84	3.02291
3.85	3.03541
3.86	3.03245
3.87	3.04002
3.88	3.02653
3.89	3.0137
3.9	3.03146
3.91	3.0035
3.92	3.03113
3.93	3.0535
3.94	3.02488
3.95	3.01041
3.96	3.04528
3.97	2.99824
3.98	3.00153
3.99	3.00547
4	3.00449
4.01	3.01699
4.02	3.04528
4.03	3.02357
4.04	3.03311
4.05	3.04199
4.06	3.03969
4.07	3.01534
4.08	3.00219
4.09	2.99988
4.1	2.99626
4.11	3.0364
4.12	2.98705
4.13	3.01896
4.14	3.016
4.15	3.01337
4.16	3.03936
4.17	3.03936
4.18	3.04002
4.19	3.01929
4.2	3.00515
4.21	2.99955
4.22	2.98212
4.23	3.01074
4.24	2.99462
4.25	2.99001
4.26	3.00186
4.27	3.00613
4.28	2.97751
4.29	3.02159
4.3	2.9887
4.31	3.03475
4.32	3.03179
4.33	3.02258
4.34	3.00153
4.35	3.00646
4.36	2.98376
4.37	3.00745
4.38	3.00383
4.39	3.02949
4.4	3.02817
4.41	3.01501
4.42	2.99166
4.43	3.01107
4.44	2.98968
4.45	3.00153
4.46	3.00021
4.47	3.00811
4.48	3.03311
4.49	3.02258
4.5	2.98541
4.51	3.02094
4.52	3.02982
4.53	3.02324
4.54	2.99922
4.55	3.01107
4.56	2.98442
4.57	3.02324
4.58	2.99791
4.59	3.00449
4.6	3.00054
4.61	2.99626
4.62	3.0183
4.63	3.01732
4.64	3.00186
4.65	2.99593
4.66	3.01238
4.67	2.96764
4.68	3.00909
4.69	2.97225
4.7	2.97225
4.71	3.03113
4.72	2.99725
4.73	3.0012
4.74	2.98541
4.75	2.99528
4.76	2.96403
4.77	2.98475
4.78	3.02587
4.79	3.00054
4.8	2.99462
4.81	3.0137
4.82	2.99297
4.83	3.01567
4.84	2.9933
4.85	2.99265
4.86	2.98771
4.87	3.01041
4.88	3.00811
4.89	2.99758
4.9	2.96797
4.91	2.97883
4.92	2.98179
4.93	2.99462
4.94	2.98837
4.95	2.95317
4.96	2.97061
4.97	2.95712
4.98	2.98409
4.99	2.97587
5	2.95416
5.01	2.95021
5.02	2.94988
5.03	2.98936
5.04	2.97686
5.05	3.00844
5.06	2.99265
5.07	3.0035
5.08	3.0058
5.09	2.99791
5.1	3.00712
5.11	2.96567
5.12	2.99133
5.13	3.00054
5.14	2.95745
5.15	2.99857
5.16	3.02587
5.17	3.02028
5.18	3.0012
5.19	2.99429
5.2	2.97225
5.21	2.98212
5.22	2.99363
5.23	3.0058
5.24	2.98771
5.25	2.96863
5.26	3.01107
5.27	2.97061
5.28	2.95679
5.29	2.97949
5.3	2.99725
5.31	2.96797
5.32	2.95218
5.33	2.97883
5.34	3.00219
5.35	2.99988
5.36	2.95284
5.37	2.95021
5.38	2.99659
5.39	2.99495
5.4	2.97126
5.41	2.97225
5.42	2.96896
5.43	3.00383
5.44	2.98574
5.45	2.97587
5.46	2.98804
5.47	3.01863
5.48	2.98278
5.49	2.95942
5.5	2.97093
5.51	3.00054
5.52	3.00087
5.53	2.97192
5.54	2.97028
5.55	2.9581
5.56	2.97192
5.57	2.98672
5.58	2.98245
5.59	3.00153
5.6	2.96797
5.61	2.96699
5.62	2.99067
5.63	2.97389
5.64	2.95514
5.65	2.96797
5.66	2.99034
5.67	2.96139
5.68	2.97291
5.69	2.99758
5.7	2.99462
5.71	2.97784
5.72	2.9558
5.73	2.95153
5.74	2.95778
5.75	2.93935
5.76	2.99067
5.77	2.98442
5.78	2.97718
5.79	2.94528
5.8	2.96764
5.81	3.0058
5.82	2.98409
5.83	2.96929
5.84	2.97686
5.85	2.97422
5.86	2.98968
5.87	2.97554
5.88	2.9683
5.89	2.96074
5.9	2.98541
5.91	2.94593
5.92	2.98442
5.93	3.00876
5.94	2.98212
5.95	2.98508
5.96	2.98146
5.97	2.96041
5.98	2.95482
5.99	2.97258
6	2.98541
6.01	2.96501
6.02	2.97126
6.03	2.99199
6.04	2.96995
6.05	2.99429
6.06	2.99659
6.07	2.98705
6.08	2.96501
6.09	2.96205
6.1	3.00449
6.11	2.99495
6.12	2.9581
6.13	2.95416
6.14	3.00317
6.15	2.94955
6.16	2.94067
6.17	2.97488
6.18	2.95153
6.19	2.98311
6.2	2.98409
6.21	2.9683
6.22	2.95876
6.23	2.94659
6.24	2.96896
6.25	2.99429
6.26	2.99495
6.27	3.00153
6.28	2.96435
6.29	3.00449
6.3	2.98376
6.31	2.95317
6.32	2.96172
6.33	2.99297
6.34	2.99232
6.35	2.95909
6.36	2.96139
6.37	2.96699
6.38	2.96534
6.39	2.97258
6.4	2.97488
6.41	2.98705
6.42	2.98705
6.43	2.99199
6.44	2.97061
6.45	2.96962
6.46	3.01238
6.47	2.98376
6.48	2.98607
6.49	2.97784
6.5	2.95185
6.51	3.01041
6.52	2.97521
6.53	2.97817
6.54	2.98903
6.55	2.94889
6.56	2.96139
6.57	2.96074
6.58	2.9864
6.59	3.00021
6.6	3.00679
6.61	2.95514
6.62	2.94725
6.63	2.966
6.64	2.97126
6.65	2.97061
6.66	2.98574
6.67	2.94758
6.68	2.96238
6.69	3.00679
6.7	2.94922
6.71	2.92718
6.72	2.9331
6.73	2.97982
6.74	2.96074
6.75	2.96304
6.76	2.9989
6.77	2.98409
6.78	2.96896
6.79	2.96172
6.8	2.97192
6.81	2.99034
6.82	2.96896
6.83	2.97061
6.84	2.99955
6.85	2.9581
6.86	2.94231
6.87	2.94889
6.88	2.991
6.89	2.98705
6.9	2.96304
6.91	2.96501
6.92	2.96567
6.93	2.95218
6.94	2.9683
6.95	2.92916
6.96	2.93705
6.97	2.96764
6.98	2.93672
6.99	2.97192
7	2.99001
7.01	2.96271
7.02	2.92685
7.03	2.94593
7.04	2.97192
7.05	2.95416
7.06	2.97653
7.07	2.9581
7.08	2.97554
7.09	2.96074
7.1	2.97784
7.11	2.95975
7.12	2.99034
7.13	2.95514
7.14	2.96929
7.15	2.99692
7.16	2.98804
7.17	2.97784
7.18	2.95909
7.19	2.93113
7.2	2.95021
7.21	2.94725
7.22	2.96534
7.23	2.97061
7.24	2.9762
7.25	2.96468
7.26	2.95317
7.27	2.9387
7.28	2.966
7.29	2.93212
7.3	2.95514
7.31	2.98047
7.32	2.96468
7.33	2.93245
7.34	2.93705
7.35	2.97817
7.36	2.98146
7.37	2.96567
7.38	2.941
7.39	2.95909
7.4	2.95087
7.41	2.95185
7.42	2.92652
7.43	2.94001
7.44	2.94034
7.45	2.95547
7.46	2.94626
7.47	2.94692
7.48	2.94528
7.49	2.96732
7.5	2.94659
7.51	2.97521
7.52	2.96139
7.53	2.96008
7.54	2.97587
7.55	2.96764
7.56	2.94067
7.57	2.94791
7.58	2.9989
7.59	2.94462
7.6	2.93047
7.61	2.96205
7.62	2.966
7.63	2.96699
7.64	2.97291
7.65	2.96468
7.66	2.93935
7.67	2.94692
7.68	2.92949
7.69	2.94495
7.7	2.93738
7.71	2.9456
7.72	2.93014
7.73	2.93705
7.74	2.94396
7.75	2.97324
7.76	2.95416
7.77	2.94297
7.78	2.95646
7.79	2.93705
7.8	2.94231
7.81	2.96008
7.82	2.9762
7.83	2.98771
7.84	2.96764
7.85	2.97422
7.86	2.94133
7.87	2.93179
7.88	2.94528
7.89	2.93179
7.9	2.90942
7.91	2.916
7.92	2.94856
7.93	2.99067
7.94	2.91731
7.95	2.92192
7.96	2.92718
7.97	2.9637
7.98	2.94791
7.99	2.94396
8	2.96403
8.01	2.94955
8.02	2.94593
8.03	2.94593
8.04	2.93705
8.05	2.941
8.06	2.94133
8.07	2.95153
8.08	2.96797
8.09	2.94758
8.1	2.94791
8.11	2.94955
8.12	2.95251
8.13	2.94363
8.14	2.96633
8.15	2.9433
8.16	2.94297
8.17	2.90777
8.18	2.92126
8.19	2.91863
8.2	2.91633
8.21	2.94396
8.22	2.92751
8.23	2.92159
8.24	2.96863
8.25	2.97225
8.26	2.96238
8.27	2.96074
8.28	2.95778
8.29	2.94692
8.3	2.93639
8.31	2.93442
8.32	2.98278
8.33	2.95383
8.34	2.9512
8.35	2.97258
8.36	2.97718
8.37	2.94166
8.38	2.98113
8.39	2.96962
8.4	2.9058
8.41	2.91106
8.42	2.94429
8.43	2.93047
8.44	2.92587
8.45	2.93376
8.46	2.89626
8.47	2.89922
8.48	2.92718
8.49	2.94856
8.5	2.90514
8.51	2.92652
8.52	2.95087
8.53	2.92225
8.54	2.94363
8.55	2.96172
8.56	2.95054
8.57	2.95843
8.58	2.93771
8.59	2.94034
8.6	2.96041
8.61	2.96567
8.62	2.92587
8.63	2.94297
8.64	2.91698
8.65	2.93014
8.66	2.94034
8.67	2.9331
8.68	2.94856
8.69	2.92981
8.7	2.96699
8.71	2.9637
8.72	2.94166
8.73	2.93705
8.74	2.93738
8.75	2.94593
8.76	2.94034
8.77	2.93277
8.78	2.90975
8.79	2.94889
8.8	2.95712
8.81	2.93343
8.82	2.92817
8.83	2.94922
8.84	2.92718
8.85	2.94166
8.86	2.93738
8.87	2.91402
8.88	2.96501
8.89	2.92192
8.9	2.9137
8.91	2.92751
8.92	2.94889
8.93	2.92751
8.94	2.90843
8.95	2.93409
8.96	2.9308
8.97	2.92389
8.98	2.93245
8.99	2.93047
9	2.91995
9.01	2.94462
9.02	2.93804
9.03	2.95054
9.04	2.90843
9.05	2.92981
9.06	2.93935
9.07	2.92883
9.08	2.90777
9.09	2.95284
9.1	2.94725
9.11	2.90448
9.12	2.92159
9.13	2.93245
9.14	2.93508
9.15	2.96929
9.16	2.93409
9.17	2.96468
9.18	2.93541
9.19	2.94824
9.2	2.95087
9.21	2.92389
9.22	2.92784
9.23	2.91008
9.24	2.90383
9.25	2.92027
9.26	2.95251
9.27	2.93903
9.28	2.92652
9.29	2.91534
9.3	2.94166
9.31	2.93508
9.32	2.91698
9.33	2.92751
9.34	2.9456
9.35	2.93409
9.36	2.93212
9.37	2.91041
9.38	2.96304
9.39	2.9512
9.4	2.92291
9.41	2.92455
9.42	2.91337
9.43	2.95021
9.44	2.94231
9.45	2.9558
9.46	2.90876
9.47	2.92093
9.48	2.93574
9.49	2.93245
9.5	2.95087
9.51	2.94856
9.52	2.93014
9.53	2.96403
9.54	2.95449
9.55	2.93705
9.56	2.9183
9.57	2.88376
9.58	2.93738
9.59	2.90909
9.6	2.91962
9.61	2.92488
9.62	2.92817
9.63	2.95054
9.64	2.91534
9.65	2.92291
9.66	2.94462
9.67	2.91666
9.68	2.89659
9.69	2.96172
9.7	2.94297
9.71	2.93837
9.72	2.91468
9.73	2.94528
9.74	2.91435
9.75	2.91731
9.76	2.92521
9.77	2.94396
9.78	2.92093
9.79	2.91962
9.8	2.93409
9.81	2.90975
9.82	2.90547
9.83	2.9285
9.84	2.96896
9.85	2.94593
9.86	2.93343
9.87	2.94462
9.88	2.9637
9.89	2.9285
9.9	2.8831
9.91	2.89955
9.92	2.91764
9.93	2.93014
9.94	2.88968
9.95	2.9456
9.96	2.9262
9.97	2.94231
9.98	2.93245
9.99	2.92817
10	2.89692
10.01	2.90087
10.02	2.92488
10.03	2.92389
10.04	2.91567
10.05	2.92422
10.06	2.92126
10.07	2.9262
10.08	2.94758
10.09	2.9762
10.1	2.92554
10.11	2.91172
10.12	2.92554
10.13	2.95021
10.14	2.92949
10.15	2.90284
10.16	2.92126
10.17	2.9206
10.18	2.94659
10.19	2.94659
10.2	2.92324
10.21	2.91271
10.22	2.96271
10.23	2.9387
10.24	2.9081
10.25	2.87554
10.26	2.88738
10.27	2.93508
10.28	2.95317
10.29	2.94231
10.3	2.94264
10.31	2.91106
10.32	2.9262
10.33	2.92389
10.34	2.91764
10.35	2.91633
10.36	2.91172
10.37	2.95021
10.38	2.93014
10.39	2.92916
10.4	2.90514
10.41	2.90317
10.42	2.89988
10.43	2.89429
10.44	2.90054
10.45	2.93837
10.46	2.92291
10.47	2.9137
10.48	2.92817
10.49	2.89725
10.5	2.93014
10.51	2.916
10.52	2.93672
10.53	2.93738
10.54	2.91567
10.55	2.93014
10.56	2.91698
10.57	2.90185
10.58	2.93935
10.59	2.93804
10.6	2.89955
10.61	2.91896
10.62	2.9183
10.63	2.916
10.64	2.88277
10.65	2.9285
10.66	2.9387
10.67	2.93968
10.68	2.89988
10.69	2.90021
10.7	2.90087
10.71	2.92521
10.72	2.93277
10.73	2.94659
10.74	2.93146
10.75	2.95251
10.76	2.94922
10.77	2.93277
10.78	2.90712
10.79	2.91896
10.8	2.94528
10.81	2.93705
10.82	2.94396
10.83	2.89758
10.84	2.89955
10.85	2.91633
10.86	2.93212
10.87	2.93475
10.88	2.9308
10.89	2.91172
10.9	2.91731
10.91	2.92159
10.92	2.89659
10.93	2.92258
10.94	2.9058
10.95	2.92159
10.96	2.91929
10.97	2.94593
10.98	2.92126
10.99	2.93738
11	2.93541
11.01	2.96107
11.02	2.95482
11.03	2.92159
11.04	2.92488
11.05	2.92324
11.06	2.92258
11.07	2.89856
11.08	2.86534
11.09	2.88705
11.1	2.92455
11.11	2.94199
11.12	2.93968
11.13	2.91567
11.14	2.93047
11.15	2.9581
11.16	2.93277
11.17	2.90251
11.18	2.91501
11.19	2.91106
11.2	2.92422
11.21	2.91666
11.22	2.92126
11.23	2.91962
11.24	2.90712
11.25	2.94396
11.26	2.91271
11.27	2.91962
11.28	2.9206
11.29	2.90843
11.3	2.92883
11.31	2.93508
11.32	2.92192
11.33	2.89922
11.34	2.88212
11.35	2.91139
11.36	2.92126
11.37	2.9035
11.38	2.92455
11.39	2.94067
11.4	2.91106
11.41	2.90514
11.42	2.91567
11.43	2.91731
11.44	2.91863
11.45	2.93376
11.46	2.94363
11.47	2.9262
11.48	2.90087
11.49	2.89067
11.5	2.93541
11.51	2.90284
11.52	2.90909
11.53	2.89166
11.54	2.9262
11.55	2.91797
11.56	2.92258
11.57	2.90909
11.58	2.90777
11.59	2.91271
11.6	2.92258
11.61	2.93475
11.62	2.941
11.63	2.93968
11.64	2.93245
11.65	2.94067
11.66	2.92455
11.67	2.92291
11.68	2.91073
11.69	2.91172
11.7	2.92159
11.71	2.90383
11.72	2.93804
11.73	2.93639
11.74	2.89593
11.75	2.90646
11.76	2.9308
11.77	2.90317
11.78	2.89429
11.79	2.9035
11.8	2.91337
11.81	2.90909
11.82	2.90613
11.83	2.91435
11.84	2.88113
11.85	2.89922
11.86	2.89758
11.87	2.90547
11.88	2.89692
11.89	2.90843
11.9	2.92093
11.91	2.88343
11.92	2.90119
11.93	2.89791
11.94	2.90547
11.95	2.92981
11.96	2.92093
11.97	2.90284
11.98	2.89692
11.99	2.88376
12	2.91041
12.01	2.91633
12.02	2.90218
12.03	2.91008
12.04	2.90218
12.05	2.91501
12.06	2.89264
12.07	2.9387
12.08	2.92324
12.09	2.89494
12.1	2.9035
12.11	2.92389
12.12	2.94034
12.13	2.91764
12.14	2.9183
12.15	2.9137
12.16	2.89856
12.17	2.89198
12.18	2.92652
12.19	2.95317
12.2	2.93837
12.21	2.89659
12.22	2.88014
12.23	2.90054
12.24	2.92192
12.25	2.90218
12.26	2.90745
12.27	2.89133
12.28	2.88804
12.29	2.87587
12.3	2.88672
12.31	2.89462
12.32	2.91008
12.33	2.88244
12.34	2.90119
12.35	2.89001
12.36	2.89988
12.37	2.89988
12.38	2.89791
12.39	2.90712
12.4	2.9262
12.41	2.91666
12.42	2.89034
12.43	2.91698
12.44	2.94396
12.45	2.9387
12.46	2.87817
12.47	2.92718
12.48	2.89823
12.49	2.90481
12.5	2.89955
12.51	2.90119
12.52	2.92126
12.53	2.89988
12.54	2.90218
12.55	2.91896
12.56	2.90942
12.57	2.89659
12.58	2.88113
12.59	2.90021
12.6	2.89527
12.61	2.93277
12.62	2.90152
12.63	2.91567
12.64	2.88475
12.65	2.89988
12.66	2.92126
12.67	2.90843
12.68	2.88837
12.69	2.88639
12.7	2.88804
12.71	2.88738
12.72	2.88508
12.73	2.93113
12.74	2.93343
12.75	2.89198
12.76	2.8956
12.77	2.91995
12.78	2.90942
12.79	2.88442
12.8	2.891
12.81	2.89527
12.82	2.91731
12.83	2.91731
12.84	2.86961
12.85	2.89692
12.86	2.90218
12.87	2.90514
12.88	2.90087
12.89	2.90481
12.9	2.91073
12.91	2.91764
12.92	2.9308
12.93	2.95547
12.94	2.89593
12.95	2.9137
12.96	2.90547
12.97	2.90777
12.98	2.88639
12.99	2.90646
13	2.91633
13.01	2.9308
13.02	2.88475
13.03	2.89758
13.04	2.88508
13.05	2.88409
13.06	2.89198
13.07	2.9035
13.08	2.90745
13.09	2.88738
13.1	2.88672
13.11	2.90284
13.12	2.91106
13.13	2.92554
13.14	2.9058
13.15	2.89791
13.16	2.91698
13.17	2.89133
13.18	2.85711
13.19	2.91172
13.2	2.89001
13.21	2.88606
13.22	2.90777
13.23	2.88902
13.24	2.90185
13.25	2.89823
13.26	2.91962
13.27	2.87587
13.28	2.89856
13.29	2.89396
13.3	2.87784
13.31	2.88442
13.32	2.91764
13.33	2.89725
13.34	2.89166
13.35	2.88837
13.36	2.86567
13.37	2.92455
13.38	2.90416
13.39	2.90416
13.4	2.8831
13.41	2.88639
13.42	2.866
13.43	2.88146
13.44	2.9081
13.45	2.88935
13.46	2.89462
13.47	2.91962
13.48	2.89889
13.49	2.89725
13.5	2.89133
13.51	2.94692
13.52	2.92192
13.53	2.89067
13.54	2.92324
13.55	2.92159
13.56	2.89494
13.57	2.8854
13.58	2.86633
13.59	2.92027
13.6	2.87455
13.61	2.86172
13.62	2.891
13.63	2.91205
13.64	2.88442
13.65	2.91534
13.66	2.86369
13.67	2.90942
13.68	2.90646
13.69	2.9206
13.7	2.91008
13.71	2.90876
13.72	2.90119
13.73	2.88343
13.74	2.91337
13.75	2.92883
13.76	2.93409
13.77	2.88409
13.78	2.89955
13.79	2.92422
13.8	2.9081
13.81	2.8831
13.82	2.89527
13.83	2.89133
13.84	2.89396
13.85	2.90679
13.86	2.93837
13.87	2.91995
13.88	2.89527
13.89	2.90514
13.9	2.87948
13.91	2.87192
13.92	2.916
13.93	2.92587
13.94	2.91304
13.95	2.90054
13.96	2.87159
13.97	2.87784
13.98	2.88113
13.99	2.89988
14	2.92192
14.01	2.8785
14.02	2.91468
14.03	2.91731
14.04	2.89856
14.05	2.90745
14.06	2.89889
14.07	2.87159
14.08	2.88343
14.09	2.92291
14.1	2.91041
14.11	2.89462
14.12	2.8933
14.13	2.88837
14.14	2.89264
14.15	2.91073
14.16	2.87718
14.17	2.90679
14.18	2.90317
14.19	2.85086
14.2	2.89429
14.21	2.90843
14.22	2.91567
14.23	2.86633
14.24	2.88837
14.25	2.90975
14.26	2.88606
14.27	2.89659
14.28	2.91304
14.29	2.92652
14.3	2.9058
14.31	2.93639
14.32	2.93639
14.33	2.90481
14.34	2.90383
14.35	2.90251
14.36	2.90777
14.37	2.90119
14.38	2.90284
14.39	2.91172
14.4	2.91238
14.41	2.91008
14.42	2.90317
14.43	2.93804
14.44	2.91172
14.45	2.91172
14.46	2.89659
14.47	2.92784
14.48	2.91731
14.49	2.88113
14.5	2.86501
14.51	2.87521
14.52	2.89856
14.53	2.88672
14.54	2.87356
14.55	2.90909
14.56	2.90087
14.57	2.87652
14.58	2.90284
14.59	2.89429
14.6	2.91205
14.61	2.91929
14.62	2.93376
14.63	2.91633
14.64	2.92126
14.65	2.92554
14.66	2.91139
14.67	2.85942
14.68	2.87817
14.69	2.87915
14.7	2.89067
14.71	2.89692
14.72	2.88639
14.73	2.90448
14.74	2.90317
14.75	2.89922
14.76	2.89593
14.77	2.92949
14.78	2.91797
14.79	2.9058
14.8	2.86731
14.81	2.89363
14.82	2.89889
14.83	2.94133
14.84	2.92916
14.85	2.90448
14.86	2.88738
14.87	2.9058
14.88	2.90317
14.89	2.89133
14.9	2.87455
14.91	2.89988
14.92	2.89429
14.93	2.86896
14.94	2.88935
14.95	2.89922
14.96	2.88804
14.97	2.88573
14.98	2.91435
14.99	2.91304
15	2.8956
15.01	2.90317
15.02	2.87751
15.03	2.88376
15.04	2.90514
15.05	2.86863
15.06	2.89758
15.07	2.90383
15.08	2.90317
15.09	2.88837
15.1	2.88508
15.11	2.88146
15.12	2.91764
15.13	2.89659
15.14	2.90416
15.15	2.87751
15.16	2.90152
15.17	2.89462
15.18	2.93738
15.19	2.90054
15.2	2.90843
15.21	2.90284
15.22	2.87159
15.23	2.86797
15.24	2.89791
15.25	2.88869
15.26	2.87619
15.27	2.8706
15.28	2.88639
15.29	2.891
15.3	2.89494
15.31	2.87981
15.32	2.88935
15.33	2.90448
15.34	2.89527
15.35	2.90185
15.36	2.87027
15.37	2.88376
15.38	2.88014
15.39	2.87948
15.4	2.9058
15.41	2.88442
15.42	2.85942
15.43	2.88442
15.44	2.91304
15.45	2.86369
15.46	2.9035
15.47	2.9137
15.48	2.92587
15.49	2.88277
15.5	2.85317
15.51	2.85382
15.52	2.88738
15.53	2.90843
15.54	2.90481
15.55	2.88672
15.56	2.89626
15.57	2.90975
15.58	2.90514
15.59	2.85415
15.6	2.86567
15.61	2.91008
15.62	2.90679
15.63	2.89198
15.64	2.89231
15.65	2.90383
15.66	2.91402
15.67	2.88343
15.68	2.88244
15.69	2.87784
15.7	2.87948
15.71	2.90119
15.72	2.88146
15.73	2.90152
15.74	2.87751
15.75	2.86633
15.76	2.90284
15.77	2.89791
15.78	2.87784
15.79	2.86238
15.8	2.88179
15.81	2.91501
15.82	2.91468
15.83	2.87883
15.84	2.89264
15.85	2.8729
15.86	2.86929
15.87	2.90383
15.88	2.88606
15.89	2.87883
15.9	2.89034
15.91	2.9035
15.92	2.88146
15.93	2.88179
15.94	2.88705
15.95	2.89725
15.96	2.89791
15.97	2.89198
15.98	2.88047
15.99	2.88508
16	2.88376
16.01	2.89922
16.02	2.89922
16.03	2.92488
16.04	2.91468
16.05	2.88409
16.06	2.89363
16.07	2.89922
16.08	2.89429
16.09	2.89198
16.1	2.87488
16.11	2.87587
16.12	2.88705
16.13	2.90218
16.14	2.90909
16.15	2.91764
16.16	2.90547
16.17	2.87258
16.18	2.8808
16.19	2.88606
16.2	2.88475
16.21	2.8558
16.22	2.89297
16.23	2.89889
16.24	2.89264
16.25	2.89001
16.26	2.87619
16.27	2.89429
16.28	2.8808
16.29	2.88113
16.3	2.90876
16.31	2.88179
16.32	2.86336
16.33	2.88277
16.34	2.85744
16.35	2.91073
16.36	2.90448
16.37	2.90547
16.38	2.891
16.39	2.90383
16.4	2.91929
16.41	2.89791
16.42	2.87751
16.43	2.87751
16.44	2.891
16.45	2.89823
16.46	2.88869
16.47	2.88475
16.48	2.88409
16.49	2.89067
16.5	2.89791
16.51	2.89823
16.52	2.89429
16.53	2.87915
16.54	2.92488
16.55	2.90448
16.56	2.88343
16.57	2.88475
16.58	2.86172
16.59	2.90712
16.6	2.89823
16.61	2.89198
16.62	2.88935
16.63	2.8785
16.64	2.89034
16.65	2.89955
16.66	2.8808
16.67	2.91304
16.68	2.891
16.69	2.91304
16.7	2.90087
16.71	2.88573
16.72	2.89297
16.73	2.89922
16.74	2.88113
16.75	2.91172
16.76	2.93409
16.77	2.90843
16.78	2.87323
16.79	2.91172
16.8	2.90712
16.81	2.86238
16.82	2.86633
16.83	2.89166
16.84	2.89462
16.85	2.8683
16.86	2.88475
16.87	2.88475
16.88	2.90448
16.89	2.89429
16.9	2.91271
16.91	2.89198
16.92	2.88212
16.93	2.90448
16.94	2.89527
16.95	2.88771
16.96	2.8956
16.97	2.88738
16.98	2.89133
16.99	2.87619
17	2.91962
17.01	2.90613
17.02	2.89692
17.03	2.90152
17.04	2.866
17.05	2.90481
17.06	2.9058
17.07	2.92093
17.08	2.90185
17.09	2.92126
17.1	2.89758
17.11	2.84823
17.12	2.8785
17.13	2.87126
17.14	2.88409
17.15	2.86369
17.16	2.87619
17.17	2.90383
17.18	2.90251
17.19	2.89856
17.2	2.88968
17.21	2.87587
17.22	2.86501
17.23	2.88804
17.24	2.89758
17.25	2.86797
17.26	2.90054
17.27	2.88738
17.28	2.88606
17.29	2.87981
17.3	2.86797
17.31	2.87225
17.32	2.84988
17.33	2.8729
17.34	2.90119
17.35	2.85054
17.36	2.86336
17.37	2.88212
17.38	2.8558
17.39	2.87619
17.4	2.89231
17.41	2.93047
17.42	2.90843
17.43	2.8729
17.44	2.87126
17.45	2.89429
17.46	2.87488
17.47	2.88277
17.48	2.90646
17.49	2.87685
17.5	2.86896
17.51	2.87027
17.52	2.90185
17.53	2.87554
17.54	2.90745
17.55	2.87587
17.56	2.87093
17.57	2.8854
17.58	2.87619
17.59	2.86205
17.6	2.88968
17.61	2.91041
17.62	2.88902
17.63	2.84363
17.64	2.86633
17.65	2.88212
17.66	2.8831
17.67	2.88672
17.68	2.89264
17.69	2.91666
17.7	2.87587
17.71	2.88376
17.72	2.88047
17.73	2.90185
17.74	2.87225
17.75	2.89396
17.76	2.89363
17.77	2.86698
17.78	2.87652
17.79	2.89166
17.8	2.90054
17.81	2.92817
17.82	2.92949
17.83	2.89001
17.84	2.86402
17.85	2.91304
17.86	2.87751
17.87	2.85218
17.88	2.86008
17.89	2.87784
17.9	2.88837
17.91	2.91337
17.92	2.89363
17.93	2.86567
17.94	2.84856
17.95	2.89198
17.96	2.87718
17.97	2.89198
17.98	2.89494
17.99	2.87784
18	2.86073
18.01	2.89297
18.02	2.86369
18.03	2.85646
18.04	2.87356
18.05	2.87159
18.06	2.87948
18.07	2.87422
18.08	2.8683
18.09	2.90251
18.1	2.89791
18.11	2.86797
18.12	2.8729
18.13	2.88837
18.14	2.91139
18.15	2.88935
18.16	2.91402
18.17	2.86961
18.18	2.87192
18.19	2.90317
18.2	2.90514
18.21	2.89626
18.22	2.8854
18.23	2.89856
18.24	2.85481
18.25	2.89166
18.26	2.88771
18.27	2.90087
18.28	2.91172
18.29	2.90712
18.3	2.87883
18.31	2.86304
18.32	2.86896
18.33	2.88113
18.34	2.88837
18.35	2.89264
18.36	2.87619
18.37	2.87422
18.38	2.88639
18.39	2.90185
18.4	2.86567
18.41	2.85481
18.42	2.86731
18.43	2.87126
18.44	2.88343
18.45	2.91172
18.46	2.88244
18.47	2.91172
18.48	2.8808
18.49	2.91106
18.5	2.8831
18.51	2.89067
18.52	2.86994
18.53	2.90317
18.54	2.86665
18.55	2.90646
18.56	2.90712
18.57	2.89527
18.58	2.85415
18.59	2.88475
18.6	2.90383
18.61	2.8683
18.62	2.89889
18.63	2.90547
18.64	2.90745
18.65	2.87587
18.66	2.85909
18.67	2.86238
18.68	2.88277
18.69	2.84988
18.7	2.88606
18.71	2.88508
18.72	2.90087
18.73	2.8706
18.74	2.8808
18.75	2.87915
18.76	2.90975
18.77	2.88639
18.78	2.88771
18.79	2.87521
18.8	2.89955
18.81	2.87126
18.82	2.8933
18.83	2.90613
18.84	2.86994
18.85	2.91271
18.86	2.89889
18.87	2.87685
18.88	2.91304
18.89	2.90909
18.9	2.89166
18.91	2.90843
18.92	2.86238
18.93	2.87356
18.94	2.88606
18.95	2.87685
18.96	2.89593
18.97	2.8683
18.98	2.87093
18.99	2.89166
19	2.87159
19.01	2.86896
19.02	2.88573
19.03	2.88146
19.04	2.90514
19.05	2.89001
19.06	2.88573
19.07	2.84626
19.08	2.8706
19.09	2.86665
19.1	2.8933
19.11	2.89297
19.12	2.88573
19.13	2.83014
19.14	2.87652
19.15	2.93541
19.16	2.90613
19.17	2.90021
19.18	2.90777
19.19	2.85975
19.2	2.88376
19.21	2.88738
19.22	2.9058
19.23	2.9137
19.24	2.8729
19.25	2.86994
19.26	2.89363
19.27	2.86731
19.28	2.88146
19.29	2.85218
19.3	2.86994
19.31	2.90284
19.32	2.84659
19.33	2.87126
19.34	2.89264
19.35	2.88968
19.36	2.90679
19.37	2.88935
19.38	2.89988
19.39	2.85843
19.4	2.89264
19.41	2.88639
19.42	2.8956
19.43	2.86961
19.44	2.88935
19.45	2.91995
19.46	2.88606
19.47	2.88771
19.48	2.87225
19.49	2.8785
19.5	2.87521
19.51	2.89067
19.52	2.89659
19.53	2.87948
19.54	2.88771
19.55	2.90251
19.56	2.87981
19.57	2.87948
19.58	2.88804
19.59	2.87981
19.6	2.8854
19.61	2.89462
19.62	2.8808
19.63	2.87422
19.64	2.87587
19.65	2.87126
19.66	2.88014
19.67	2.87455
19.68	2.88442
19.69	2.88771
19.7	2.86271
19.71	2.88573
19.72	2.86073
19.73	2.89988
19.74	2.89922
19.75	2.89626
19.76	2.86929
19.77	2.87422
19.78	2.86501
19.79	2.85218
19.8	2.89593
19.81	2.916
19.82	2.89823
19.83	2.89823
19.84	2.87685
19.85	2.87587
19.86	2.8456
19.87	2.86501
19.88	2.9183
19.89	2.89363
19.9	2.87027
19.91	2.88244
19.92	2.90087
19.93	2.85646
19.94	2.88935
19.95	2.89823
19.96	2.85876
19.97	2.90679
19.98	2.89396
19.99	2.90448
20	2.92356
20.01	2.91205
20.02	2.91797
20.03	2.89527
20.04	2.88672
20.05	2.88738
20.06	2.87258
20.07	2.90021
20.08	2.90909
20.09	2.91238
20.1	2.90416
20.11	2.87455
20.12	2.87159
20.13	2.87126
20.14	2.85909
20.15	2.87981
20.16	2.84626
20.17	2.85679
20.18	2.87685
20.19	2.88146
20.2	2.86929
20.21	2.88442
20.22	2.89231
20.23	2.85975
20.24	2.87685
20.25	2.85744
20.26	2.8854
20.27	2.86073
20.28	2.86172
20.29	2.866
20.3	2.8535
20.31	2.84856
20.32	2.86698
20.33	2.8479
20.34	2.84626
20.35	2.87455
20.36	2.86271
20.37	2.86797
20.38	2.91238
20.39	2.9058
20.4	2.88244
20.41	2.86501
20.42	2.88902
20.43	2.88047
20.44	2.86369
20.45	2.89166
20.46	2.87027
20.47	2.89462
20.48	2.91929
20.49	2.87521
20.5	2.88705
20.51	2.89231
20.52	2.8683
20.53	2.9137
20.54	2.87915
20.55	2.8785
20.56	2.87718
20.57	2.8854
20.58	2.8854
20.59	2.86238
20.6	2.86698
20.61	2.916
20.62	2.88212
20.63	2.88902
20.64	2.87883
20.65	2.85514
20.66	2.87488
20.67	2.87389
20.68	2.89659
20.69	2.89001
20.7	2.891
20.71	2.86929
20.72	2.89922
20.73	2.89231
20.74	2.85777
20.75	2.88672
20.76	2.89494
20.77	2.86929
20.78	2.87422
20.79	2.84725
20.8	2.89166
20.81	2.86633
20.82	2.8933
20.83	2.85251
20.84	2.86567
20.85	2.87718
20.86	2.85218
20.87	2.87027
20.88	2.87981
20.89	2.85646
20.9	2.90185
20.91	2.88804
20.92	2.89955
20.93	2.85679
20.94	2.88475
20.95	2.89692
20.96	2.89889
20.97	2.90514
20.98	2.87915
20.99	2.8706
21	2.86665
21.01	2.86698
21.02	2.84593
21.03	2.84297
21.04	2.87192
21.05	2.8535
21.06	2.86369
21.07	2.88047
21.08	2.84889
21.09	2.84659
21.1	2.87751
21.11	2.88869
21.12	2.88047
21.13	2.84231
21.14	2.86567
21.15	2.88837
21.16	2.88508
21.17	2.88212
21.18	2.88113
21.19	2.85613
21.2	2.88244
21.21	2.90416
21.22	2.87685
21.23	2.87159
21.24	2.89297
21.25	2.86764
21.26	2.87883
21.27	2.88738
21.28	2.85448
21.29	2.86863
21.3	2.85777
21.31	2.84988
21.32	2.866
21.33	2.84198
21.34	2.84494
21.35	2.87883
21.36	2.84988
21.37	2.88442
21.38	2.90185
21.39	2.87389
21.4	2.87455
21.41	2.866
21.42	2.8706
21.43	2.85448
21.44	2.8433
21.45	2.8729
21.46	2.86863
21.47	2.86205
21.48	2.88968
21.49	2.87981
21.5	2.89791
21.51	2.88113
21.52	2.88508
21.53	2.86106
21.54	2.87258
21.55	2.90054
21.56	2.87685
21.57	2.8581
21.58	2.87521
21.59	2.85876
21.6	2.85119
21.61	2.89396
21.62	2.87817
21.63	2.87422
21.64	2.90152
21.65	2.84955
21.66	2.87192
21.67	2.86633
21.68	2.88508
21.69	2.91041
21.7	2.88442
21.71	2.8933
21.72	2.87554
21.73	2.87356
21.74	2.87455
21.75	2.87521
21.76	2.87455
21.77	2.86369
21.78	2.89231
21.79	2.88508
21.8	2.84889
21.81	2.87225
21.82	2.86731
21.83	2.88442
21.84	2.89494
21.85	2.90909
21.86	2.86567
21.87	2.87192
21.88	2.88179
21.89	2.90185
21.9	2.88771
21.91	2.86468
21.92	2.83935
21.93	2.87356
21.94	2.8706
21.95	2.87488
21.96	2.85646
21.97	2.89429
21.98	2.891
21.99	2.87981
22	2.87488
22.01	2.88376
22.02	2.89462
22.03	2.88179
22.04	2.91139
22.05	2.88902
22.06	2.8604
22.07	2.90777
22.08	2.88146
22.09	2.86402
22.1	2.86764
22.11	2.90383
22.12	2.88475
22.13	2.86665
22.14	2.89725
22.15	2.87258
22.16	2.89527
22.17	2.91698
22.18	2.86534
22.19	2.86435
22.2	2.87488
22.21	2.87718
22.22	2.89363
22.23	2.87389
22.24	2.89133
22.25	2.86435
22.26	2.89462
22.27	2.866
22.28	2.89462
22.29	2.88606
22.3	2.85251
22.31	2.87126
22.32	2.85942
22.33	2.86369
22.34	2.88475
22.35	2.86633
22.36	2.90909
22.37	2.85415
22.38	2.8558
22.39	2.85646
22.4	2.89626
22.41	2.916
22.42	2.88804
22.43	2.89001
22.44	2.89067
22.45	2.90481
22.46	2.90119
22.47	2.87258
22.48	2.87225
22.49	2.86633
22.5	2.89988
22.51	2.85909
22.52	2.85251
22.53	2.86764
22.54	2.86764
22.55	2.89363
22.56	2.88902
22.57	2.87323
22.58	2.87981
22.59	2.88639
22.6	2.85251
22.61	2.88409
22.62	2.8729
22.63	2.89297
22.64	2.85613
22.65	2.81863
22.66	2.86863
22.67	2.8535
22.68	2.87455
22.69	2.86896
22.7	2.88508
22.71	2.87389
22.72	2.85909
22.73	2.86073
22.74	2.85547
22.75	2.89001
22.76	2.88442
22.77	2.86139
22.78	2.85086
22.79	2.88869
22.8	2.87718
22.81	2.88869
22.82	2.84955
22.83	2.86896
22.84	2.87422
22.85	2.87389
22.86	2.87718
22.87	2.86994
22.88	2.8604
22.89	2.85086
22.9	2.87883
22.91	2.91863
22.92	2.8956
22.93	2.88014
22.94	2.88639
22.95	2.88047
22.96	2.8706
22.97	2.87948
22.98	2.88343
22.99	2.88837
23	2.866
23.01	2.85909
23.02	2.84461
23.03	2.88705
23.04	2.85086
23.05	2.87258
23.06	2.91468
23.07	2.9035
23.08	2.86402
23.09	2.8729
23.1	2.88902
23.11	2.86896
23.12	2.86008
23.13	2.85613
23.14	2.84988
23.15	2.87751
23.16	2.86929
23.17	2.89034
23.18	2.89758
23.19	2.89034
23.2	2.87652
23.21	2.88508
23.22	2.83771
23.23	2.86304
23.24	2.86304
23.25	2.85646
23.26	2.87981
23.27	2.86929
23.28	2.84231
23.29	2.85679
23.3	2.87883
23.31	2.86698
23.32	2.88244
23.33	2.85876
23.34	2.87718
23.35	2.8706
23.36	2.87455
23.37	2.87455
23.38	2.87521
23.39	2.85744
23.4	2.88212
23.41	2.87554
23.42	2.85284
23.43	2.86402
23.44	2.86665
23.45	2.8683
23.46	2.8729
23.47	2.91271
23.48	2.87323
23.49	2.8535
23.5	2.82257
23.51	2.86073
23.52	2.86139
23.53	2.84264
23.54	2.85415
23.55	2.86271
23.56	2.85744
23.57	2.86567
23.58	2.87883
23.59	2.87554
23.6	2.9058
23.61	2.87258
23.62	2.88376
23.63	2.87422
23.64	2.88014
23.65	2.88475
23.66	2.84363
23.67	2.84198
23.68	2.84034
23.69	2.86863
23.7	2.84955
23.71	2.85382
23.72	2.87356
23.73	2.86336
23.74	2.87389
23.75	2.85843
23.76	2.85152
23.77	2.86534
23.78	2.88672
23.79	2.90185
23.8	2.8831
23.81	2.85711
23.82	2.85942
23.83	2.86271
23.84	2.86994
23.85	2.86797
23.86	2.86435
23.87	2.87225
23.88	2.85054
23.89	2.83738
23.9	2.88475
23.91	2.86698
23.92	2.85415
23.93	2.86106
23.94	2.8683
23.95	2.86797
23.96	2.88047
23.97	2.86369
23.98	2.88146
23.99	2.87981
24	2.86304
24.01	2.85481
24.02	2.88113
24.03	2.88508
24.04	2.8729
24.05	2.84922
24.06	2.84922
24.07	2.88837
24.08	2.88376
24.09	2.88442
24.1	2.88244
24.11	2.891
24.12	2.85646
24.13	2.85481
24.14	2.88442
24.15	2.87587
24.16	2.85185
24.17	2.88606
24.18	2.89527
24.19	2.85448
24.2	2.85613
24.21	2.85251
24.22	2.86468
24.23	2.84757
24.24	2.83803
24.25	2.86336
24.26	2.87093
24.27	2.90514
24.28	2.87948
24.29	2.86501
24.3	2.85284
24.31	2.86402
24.32	2.87192
24.33	2.88343
24.34	2.85876
24.35	2.88738
24.36	2.86665
24.37	2.89856
24.38	2.88968
24.39	2.85547
24.4	2.86468
24.41	2.87718
24.42	2.86665
24.43	2.87948
24.44	2.86961
24.45	2.8956
24.46	2.90745
24.47	2.87751
24.48	2.90087
24.49	2.88047
24.5	2.83935
24.51	2.88014
24.52	2.86271
24.53	2.88212
24.54	2.89231
24.55	2.9183
24.56	2.83113
24.57	2.89231
24.58	2.87619
24.59	2.84363
24.6	2.88212
24.61	2.88935
24.62	2.92225
24.63	2.89001
24.64	2.87915
24.65	2.86238
24.66	2.86633
24.67	2.83113
24.68	2.87685
24.69	2.86271
24.7	2.85218
24.71	2.87093
24.72	2.8956
24.73	2.88902
24.74	2.86205
24.75	2.88442
24.76	2.88672
24.77	2.85646
24.78	2.82455
24.79	2.85284
24.8	2.87554
24.81	2.88738
24.82	2.87027
24.83	2.85646
24.84	2.87126
24.85	2.86567
24.86	2.86172
24.87	2.84988
24.88	2.84198
24.89	2.85547
24.9	2.84955
24.91	2.86501
24.92	2.86008
24.93	2.8729
24.94	2.86008
24.95	2.83442
24.96	2.84264
24.97	2.83639
24.98	2.89133
24.99	2.84856
25	2.84527
25.01	2.84823
25.02	2.82356
25.03	2.88606
25.04	2.84692
25.05	2.84198
25.06	2.85481
25.07	2.85021
25.08	2.85481
25.09	2.86369
25.1	2.86961
25.11	2.85185
25.12	2.87159
25.13	2.8535
25.14	2.866
25.15	2.86073
25.16	2.88672
25.17	2.86797
25.18	2.86633
25.19	2.9058
25.2	2.8808
25.21	2.86534
25.22	2.83869
25.23	2.85679
25.24	2.86665
25.25	2.83244
25.26	2.86961
25.27	2.85679
25.28	2.85054
25.29	2.86764
25.3	2.86501
25.31	2.85251
25.32	2.85021
25.33	2.85909
25.34	2.87126
25.35	2.89231
25.36	2.86961
25.37	2.86633
25.38	2.87225
25.39	2.84264
25.4	2.86534
25.41	2.8831
25.42	2.87521
25.43	2.87258
25.44	2.85646
25.45	2.8808
25.46	2.89396
25.47	2.87488
25.48	2.88738
25.49	2.86435
25.5	2.87323
25.51	2.89593
25.52	2.8433
25.53	2.8683
25.54	2.86929
25.55	2.85744
25.56	2.87422
25.57	2.84198
25.58	2.86139
25.59	2.89001
25.6	2.87652
25.61	2.84757
25.62	2.84527
25.63	2.85317
25.64	2.8308
25.65	2.86961
25.66	2.89988
25.67	2.8785
25.68	2.89758
25.69	2.88837
25.7	2.84955
25.71	2.85415
25.72	2.88113
25.73	2.84626
25.74	2.83771
25.75	2.86238
25.76	2.86205
25.77	2.85021
25.78	2.87981
25.79	2.86863
25.8	2.88376
25.81	2.84626
25.82	2.85975
25.83	2.88376
25.84	2.92258
25.85	2.8831
25.86	2.88968
25.87	2.89067
25.88	2.87883
25.89	2.85514
25.9	2.87915
25.91	2.84757
25.92	2.85382
25.93	2.86731
25.94	2.87718
25.95	2.88672
25.96	2.88508
25.97	2.87126
25.98	2.8581
25.99	2.87389
26	2.86665
26.01	2.8183
26.02	2.86797
26.03	2.85711
26.04	2.84955
26.05	2.86139
26.06	2.85218
26.07	2.866
26.08	2.86633
26.09	2.84527
26.1	2.88869
26.11	2.8581
26.12	2.84264
26.13	2.86764
26.14	2.89297
26.15	2.86468
26.16	2.87554
26.17	2.86008
26.18	2.89231
26.19	2.8933
26.2	2.86205
26.21	2.86896
26.22	2.87685
26.23	2.87093
26.24	2.86896
26.25	2.84856
26.26	2.8706
26.27	2.87784
26.28	2.8558
26.29	2.86501
26.3	2.86073
26.31	2.87587
26.32	2.86797
26.33	2.86139
26.34	2.86501
26.35	2.85119
26.36	2.8206
26.37	2.87027
26.38	2.89396
26.39	2.87817
26.4	2.89429
26.41	2.8785
26.42	2.87521
26.43	2.84856
26.44	2.87093
26.45	2.85909
26.46	2.8479
26.47	2.85843
26.48	2.87883
26.49	2.88639
26.5	2.85382
26.51	2.84626
26.52	2.85481
26.53	2.86073
26.54	2.8706
26.55	2.88014
26.56	2.90218
26.57	2.88277
26.58	2.87027
26.59	2.86205
26.6	2.83442
26.61	2.83672
26.62	2.86139
26.63	2.84725
26.64	2.86698
26.65	2.86271
26.66	2.86797
26.67	2.8854
26.68	2.8933
26.69	2.85909
26.7	2.85942
26.71	2.84955
26.72	2.87093
26.73	2.84001
26.74	2.86435
26.75	2.87455
26.76	2.87685
26.77	2.8808
26.78	2.8581
26.79	2.84757
26.8	2.8933
26.81	2.89823
26.82	2.85942
26.83	2.86238
26.84	2.86731
26.85	2.86238
26.86	2.8456
26.87	2.86534
26.88	2.89823
26.89	2.84132
26.9	2.87027
26.91	2.86633
26.92	2.86797
26.93	2.9035
26.94	2.87784
26.95	2.85909
26.96	2.89856
26.97	2.87521
26.98	2.87422
26.99	2.88935
27	2.88573
27.01	2.88244
27.02	2.8535
27.03	2.85679
27.04	2.82126
27.05	2.84001
27.06	2.84988
27.07	2.85646
27.08	2.85777
27.09	2.89034
27.1	2.84757
27.11	2.85481
27.12	2.87915
27.13	2.86961
27.14	2.82882
27.15	2.87192
27.16	2.88014
27.17	2.8535
27.18	2.82192
27.19	2.83146
27.2	2.83606
27.21	2.87323
27.22	2.87192
27.23	2.83211
27.24	2.83178
27.25	2.86468
27.26	2.86106
27.27	2.86008
27.28	2.86863
27.29	2.86172
27.3	2.84461
27.31	2.83771
27.32	2.84297
27.33	2.86633
27.34	2.86961
27.35	2.891
27.36	2.8808
27.37	2.83211
27.38	2.86961
27.39	2.8683
27.4	2.87422
27.41	2.8683
27.42	2.86139
27.43	2.86665
27.44	2.85777
27.45	2.84889
27.46	2.86896
27.47	2.85876
27.48	2.88113
27.49	2.86896
27.5	2.86271
27.51	2.87948
27.52	2.88672
27.53	2.866
27.54	2.87488
27.55	2.83014
27.56	2.841
27.57	2.85185
27.58	2.86994
27.59	2.86271
27.6	2.8479
27.61	2.85843
27.62	2.84626
27.63	2.85711
27.64	2.88672
27.65	2.87422
27.66	2.87356
27.67	2.87389
27.68	2.85744
27.69	2.82093
27.7	2.83178
27.71	2.84626
27.72	2.86764
27.73	2.86633
27.74	2.87685
27.75	2.86501
27.76	2.85843
27.77	2.86205
27.78	2.84889
27.79	2.84165
27.8	2.87784
27.81	2.83705
27.82	2.89725
27.83	2.86994
27.84	2.84856
27.85	2.8604
27.86	2.84461
27.87	2.86764
27.88	2.85646
27.89	2.85711
27.9	2.83672
27.91	2.88968
27.92	2.84001
27.93	2.83639
27.94	2.83376
27.95	2.85086
27.96	2.84067
27.97	2.87225
27.98	2.89955
27.99	2.88902
28	2.88442
28.01	2.85711
28.02	2.82948
28.03	2.86172
28.04	2.86501
28.05	2.90547
28.06	2.85646
28.07	2.83442
28.08	2.86567
28.09	2.8831
28.1	2.87225
28.11	2.88047
28.12	2.86731
28.13	2.88113
28.14	2.85679
28.15	2.87685
28.16	2.85975
28.17	2.85777
28.18	2.86567
28.19	2.8456
28.2	2.84988
28.21	2.8604
28.22	2.86205
28.23	2.87225
28.24	2.86304
28.25	2.86468
28.26	2.8956
28.27	2.88146
28.28	2.87817
28.29	2.89198
28.3	2.86073
28.31	2.82948
28.32	2.85547
28.33	2.85481
28.34	2.87915
28.35	2.84725
28.36	2.84856
28.37	2.86271
28.38	2.84034
28.39	2.86369
28.4	2.86731
28.41	2.87422
28.42	2.90712
28.43	2.88442
28.44	2.86238
28.45	2.84757
28.46	2.87948
28.47	2.84692
28.48	2.84001
28.49	2.86271
28.5	2.8683
28.51	2.85185
28.52	2.87817
28.53	2.84955
28.54	2.86633
28.55	2.85744
28.56	2.86863
28.57	2.87883
28.58	2.88014
28.59	2.86698
28.6	2.8558
28.61	2.85021
28.62	2.86764
28.63	2.9035
28.64	2.90021
28.65	2.85942
28.66	2.88869
28.67	2.8831
28.68	2.87619
28.69	2.84955
28.7	2.85547
28.71	2.84725
28.72	2.84593
28.73	2.85909
28.74	2.85942
28.75	2.8706
28.76	2.85613
28.77	2.85843
28.78	2.84692
28.79	2.85514
28.8	2.84955
28.81	2.87948
28.82	2.87619
28.83	2.86764
28.84	2.8706
28.85	2.85613
28.86	2.87192
28.87	2.87488
28.88	2.87126
28.89	2.84165
28.9	2.84067
28.91	2.84626
28.92	2.8604
28.93	2.85876
28.94	2.85613
28.95	2.866
28.96	2.85317
28.97	2.89067
28.98	2.84001
28.99	2.88935
29	2.89429
29.01	2.86205
29.02	2.83672
29.03	2.81336
29.04	2.87718
29.05	2.87948
29.06	2.85744
29.07	2.8683
29.08	2.81468
29.09	2.81468
29.1	2.86468
29.11	2.8956
29.12	2.89363
29.13	2.85481
29.14	2.86731
29.15	2.82323
29.16	2.84527
29.17	2.88179
29.18	2.8808
29.19	2.84593
29.2	2.87554
29.21	2.87159
29.22	2.85975
29.23	2.88837
29.24	2.88146
29.25	2.841
29.26	2.8604
29.27	2.85448
29.28	2.8535
29.29	2.84626
29.3	2.8456
29.31	2.85021
29.32	2.84461
29.33	2.86304
29.34	2.87817
29.35	2.86896
29.36	2.8456
29.37	2.86633
29.38	2.82586
29.39	2.84988
29.4	2.83705
29.41	2.82619
29.42	2.85613
29.43	2.86929
29.44	2.88771
29.45	2.9058
29.46	2.87817
29.47	2.85481
29.48	2.85284
29.49	2.85843
29.5	2.83507
29.51	2.87817
29.52	2.89231
29.53	2.86468
29.54	2.87225
29.55	2.86501
29.56	2.87225
29.57	2.86665
29.58	2.85975
29.59	2.87915
29.6	2.88902
29.61	2.85843
29.62	2.84165
29.63	2.88146
29.64	2.86896
29.65	2.83507
29.66	2.8558
29.67	2.8558
29.68	2.87587
29.69	2.8683
29.7	2.8229
29.71	2.86665
29.72	2.82882
29.73	2.84757
29.74	2.866
29.75	2.89001
29.76	2.86731
29.77	2.84198
29.78	2.86304
29.79	2.87554
29.8	2.85744
29.81	2.84692
29.82	2.88902
29.83	2.866
29.84	2.85876
29.85	2.80711
29.86	2.85942
29.87	2.88804
29.88	2.84034
29.89	2.87126
29.9	2.8683
29.91	2.85909
29.92	2.8706
29.93	2.87488
29.94	2.88409
29.95	2.85317
29.96	2.85054
29.97	2.8604
29.98	2.86896
29.99	2.90185
30	2.88738
30.01	2.86961
30.02	2.88705
30.03	2.88573
30.04	2.83869
30.05	2.83178
30.06	2.83507
30.07	2.86205
30.08	2.86501
30.09	2.87225
30.1	2.85152
30.11	2.87027
30.12	2.85514
30.13	2.86468
30.14	2.8706
30.15	2.84429
30.16	2.89166
30.17	2.84593
30.18	2.84396
30.19	2.85646
30.2	2.8831
30.21	2.8581
30.22	2.86929
30.23	2.86764
30.24	2.88606
30.25	2.86665
30.26	2.84626
30.27	2.85119
30.28	2.88244
30.29	2.88705
30.3	2.86534
30.31	2.84823
30.32	2.8785
30.33	2.8456
30.34	2.866
30.35	2.83639
30.36	2.85448
30.37	2.87126
30.38	2.86238
30.39	2.85415
30.4	2.84626
30.41	2.81698
30.42	2.84593
30.43	2.9183
30.44	2.84067
30.45	2.83836
30.46	2.85284
30.47	2.841
30.48	2.84823
30.49	2.84823
30.5	2.86468
30.51	2.87883
30.52	2.86106
30.53	2.87554
30.54	2.8433
30.55	2.82882
30.56	2.82652
30.57	2.85843
30.58	2.87554
30.59	2.88639
30.6	2.85646
30.61	2.85481
30.62	2.86961
30.63	2.85711
30.64	2.81336
30.65	2.86271
30.66	2.83705
30.67	2.86172
30.68	2.85711
30.69	2.84527
30.7	2.86073
30.71	2.87587
30.72	2.87159
30.73	2.84823
30.74	2.84889
30.75	2.84494
30.76	2.84889
30.77	2.85942
30.78	2.84527
30.79	2.85744
30.8	2.86501
30.81	2.86172
30.82	2.83803
30.83	2.8581
30.84	2.86238
30.85	2.86106
30.86	2.89889
30.87	2.8683
30.88	2.84725
30.89	2.87258
30.9	2.86731
30.91	2.87389
30.92	2.83573
30.93	2.87619
30.94	2.88508
30.95	2.84988
30.96	2.86369
30.97	2.83672
30.98	2.83935
30.99	2.85218
31	2.84856
31.01	2.84494
31.02	2.82389
31.03	2.8535
31.04	2.86008
31.05	2.86994
31.06	2.85218
31.07	2.83935
31.08	2.83968
31.09	2.85054
31.1	2.83178
31.11	2.82323
31.12	2.85218
31.13	2.86698
31.14	2.85086
31.15	2.83409
31.16	2.85744
31.17	2.84757
31.18	2.87685
31.19	2.84132
31.2	2.82718
31.21	2.86435
31.22	2.88179
31.23	2.87587
31.24	2.87883
31.25	2.8479
31.26	2.82257
31.27	2.84725
31.28	2.87093
31.29	2.85185
31.3	2.8604
31.31	2.8535
31.32	2.85119
31.33	2.90843
31.34	2.87521
31.35	2.87751
31.36	2.86271
31.37	2.82685
31.38	2.82915
31.39	2.86106
31.4	2.866
31.41	2.84363
31.42	2.86698
31.43	2.84593
31.44	2.84626
31.45	2.84988
31.46	2.87718
31.47	2.86896
31.48	2.86271
31.49	2.86534
31.5	2.83803
31.51	2.90087
31.52	2.90909
31.53	2.87323
31.54	2.891
31.55	2.86698
31.56	2.87455
31.57	2.8683
31.58	2.86797
31.59	2.90416
31.6	2.85646
31.61	2.87587
31.62	2.87093
31.63	2.86863
31.64	2.88771
31.65	2.8831
31.66	2.87323
31.67	2.83705
31.68	2.84527
31.69	2.86369
31.7	2.86205
31.71	2.84034
31.72	2.83968
31.73	2.86863
31.74	2.84001
31.75	2.8456
31.76	2.86304
31.77	2.85284
31.78	2.86797
31.79	2.87554
31.8	2.86336
31.81	2.85547
31.82	2.85975
31.83	2.85481
31.84	2.83573
31.85	2.86534
31.86	2.8558
31.87	2.8535
31.88	2.82652
31.89	2.86238
31.9	2.8456
31.91	2.87685
31.92	2.86863
31.93	2.86402
31.94	2.85514
31.95	2.86961
31.96	2.88047
31.97	2.86008
31.98	2.84396
31.99	2.86369
32	2.87619
32.01	2.87422
32.02	2.84461
32.03	2.86106
32.04	2.83573
32.05	2.84429
32.06	2.84692
32.07	2.8331
32.08	2.83014
32.09	2.87225
32.1	2.85021
32.11	2.86567
32.12	2.85777
32.13	2.87323
32.14	2.87685
32.15	2.85119
32.16	2.87192
32.17	2.87389
32.18	2.84429
32.19	2.86665
32.2	2.88935
32.21	2.86008
32.22	2.84297
32.23	2.85185
32.24	2.85415
32.25	2.83705
32.26	2.84461
32.27	2.88968
32.28	2.87883
32.29	2.87126
32.3	2.83573
32.31	2.85909
32.32	2.86863
32.33	2.86336
32.34	2.86139
32.35	2.90909
32.36	2.84692
32.37	2.82521
32.38	2.84988
32.39	2.87619
32.4	2.87192
32.41	2.84527
32.42	2.8558
32.43	2.84396
32.44	2.85613
32.45	2.866
32.46	2.87883
32.47	2.8831
32.48	2.86698
32.49	2.87981
32.5	2.86336
32.51	2.8854
32.52	2.85744
32.53	2.83376
32.54	2.83178
32.55	2.85119
32.56	2.85679
32.57	2.87652
32.58	2.88705
32.59	2.87784
32.6	2.87389
32.61	2.87323
32.62	2.8729
32.63	2.80678
32.64	2.84067
32.65	2.83475
32.66	2.86567
32.67	2.87455
32.68	2.87784
32.69	2.83211
32.7	2.84593
32.71	2.84396
32.72	2.87521
32.73	2.89462
32.74	2.86665
32.75	2.87883
32.76	2.88738
32.77	2.85777
32.78	2.84429
32.79	2.85613
32.8	2.84198
32.81	2.82093
32.82	2.8729
32.83	2.87159
32.84	2.85514
32.85	2.82751
32.86	2.85185
32.87	2.87389
32.88	2.88442
32.89	2.8706
32.9	2.87915
32.91	2.866
32.92	2.85777
32.93	2.87619
32.94	2.84692
32.95	2.86139
32.96	2.84363
32.97	2.86271
32.98	2.87652
32.99	2.8956
33	2.83573
33.01	2.84165
33.02	2.85317
33.03	2.85711
33.04	2.84988
33.05	2.84198
33.06	2.87159
33.07	2.85909
33.08	2.87521
33.09	2.866
33.1	2.84264
33.11	2.83771
33.12	2.86369
33.13	2.86633
33.14	2.84988
33.15	2.85975
33.16	2.84988
33.17	2.85119
33.18	2.83705
33.19	2.84034
33.2	2.85119
33.21	2.86008
33.22	2.87258
33.23	2.88244
33.24	2.84264
33.25	2.86665
33.26	2.8785
33.27	2.8535
33.28	2.84692
33.29	2.86238
33.3	2.85382
33.31	2.866
33.32	2.8183
33.33	2.85711
33.34	2.8706
33.35	2.85777
33.36	2.84264
33.37	2.84988
33.38	2.84593
33.39	2.8183
33.4	2.82652
33.41	2.85679
33.42	2.85843
33.43	2.89133
33.44	2.84494
33.45	2.85613
33.46	2.85646
33.47	2.87521
33.48	2.8706
33.49	2.83771
33.5	2.82981
33.51	2.85448
33.52	2.85646
33.53	2.83705
33.54	2.81336
33.55	2.86008
33.56	2.87192
33.57	2.85909
33.58	2.86567
33.59	2.866
33.6	2.84725
33.61	2.85284
33.62	2.84067
33.63	2.84889
33.64	2.83014
33.65	2.83244
33.66	2.81896
33.67	2.82521
33.68	2.85843
33.69	2.89067
33.7	2.90185
33.71	2.88705
33.72	2.87323
33.73	2.84889
33.74	2.83968
33.75	2.84231
33.76	2.83442
33.77	2.85975
33.78	2.84889
33.79	2.8785
33.8	2.85218
33.81	2.84757
33.82	2.86139
33.83	2.85021
33.84	2.85613
33.85	2.84922
33.86	2.85481
33.87	2.87389
33.88	2.85086
33.89	2.8581
33.9	2.83507
33.91	2.84067
33.92	2.85086
33.93	2.83968
33.94	2.83606
33.95	2.86304
33.96	2.83771
33.97	2.83047
33.98	2.8229
33.99	2.82093
34	2.8183
34.01	2.81665
34.02	2.84856
34.03	2.83014
34.04	2.84955
34.05	2.8354
34.06	2.86238
34.07	2.85119
34.08	2.84889
34.09	2.85185
34.1	2.86534
34.11	2.84165
34.12	2.82981
34.13	2.83705
34.14	2.83869
34.15	2.8558
34.16	2.86008
34.17	2.8581
34.18	2.83771
34.19	2.84889
34.2	2.86501
34.21	2.83803
34.22	2.85547
34.23	2.87981
34.24	2.86698
34.25	2.84725
34.26	2.87619
34.27	2.84067
34.28	2.8581
34.29	2.88771
34.3	2.85021
34.31	2.84001
34.32	2.86271
34.33	2.90284
34.34	2.89166
34.35	2.88672
34.36	2.866
34.37	2.87225
34.38	2.85975
34.39	2.86106
34.4	2.8456
34.41	2.85251
34.42	2.8456
34.43	2.90317
34.44	2.85777
34.45	2.85054
34.46	2.86994
34.47	2.85086
34.48	2.85613
34.49	2.85876
34.5	2.85086
34.51	2.87159
34.52	2.86106
34.53	2.83639
34.54	2.82389
34.55	2.85514
34.56	2.85152
34.57	2.88606
34.58	2.87225
34.59	2.84757
34.6	2.85415
34.61	2.83178
34.62	2.87159
34.63	2.85547
34.64	2.82784
34.65	2.87159
34.66	2.8479
34.67	2.8354
34.68	2.90054
34.69	2.87685
34.7	2.86633
34.71	2.85711
34.72	2.83869
34.73	2.85646
34.74	2.85843
34.75	2.85448
34.76	2.83343
34.77	2.84132
34.78	2.85514
34.79	2.8604
34.8	2.8331
34.81	2.87027
34.82	2.84198
34.83	2.87422
34.84	2.86797
34.85	2.84034
34.86	2.84067
34.87	2.8535
34.88	2.84198
34.89	2.85448
34.9	2.8456
34.91	2.84725
34.92	2.8581
34.93	2.87356
34.94	2.85415
34.95	2.84067
34.96	2.83672
34.97	2.83211
34.98	2.83475
34.99	2.81369
35	2.85547
35.01	2.86994
35.02	2.84856
35.03	2.85152
35.04	2.85481
35.05	2.87521
35.06	2.86896
35.07	2.8558
35.08	2.84626
35.09	2.83211
35.1	2.81534
35.11	2.85021
35.12	2.85218
35.13	2.8808
35.14	2.84988
35.15	2.87422
35.16	2.8433
35.17	2.83573
35.18	2.82652
35.19	2.81501
35.2	2.86468
35.21	2.90152
35.22	2.86929
35.23	2.84757
35.24	2.84626
35.25	2.83113
35.26	2.86929
35.27	2.83771
35.28	2.81698
35.29	2.81698
35.3	2.85777
35.31	2.88606
35.32	2.86008
35.33	2.841
35.34	2.85909
35.35	2.83442
35.36	2.85284
35.37	2.85942
35.38	2.84231
35.39	2.85613
35.4	2.84461
35.41	2.83113
35.42	2.82882
35.43	2.84429
35.44	2.85481
35.45	2.84626
35.46	2.83606
35.47	2.81369
35.48	2.81501
35.49	2.85777
35.5	2.86896
35.51	2.86863
35.52	2.88014
35.53	2.87126
35.54	2.85251
35.55	2.87027
35.56	2.85251
35.57	2.84692
35.58	2.84297
35.59	2.87817
35.6	2.85448
35.61	2.86139
35.62	2.84034
35.63	2.88014
35.64	2.80415
35.65	2.79593
35.66	2.85711
35.67	2.86205
35.68	2.86205
35.69	2.85975
35.7	2.81238
35.71	2.84659
35.72	2.8331
35.73	2.82751
35.74	2.86172
35.75	2.84001
35.76	2.82389
35.77	2.85284
35.78	2.85185
35.79	2.85876
35.8	2.84988
35.81	2.85843
35.82	2.84823
35.83	2.87554
35.84	2.86764
35.85	2.8354
35.86	2.84494
35.87	2.86336
35.88	2.87422
35.89	2.87323
35.9	2.83869
35.91	2.84297
35.92	2.84034
35.93	2.86994
35.94	2.83705
35.95	2.85054
35.96	2.85679
35.97	2.85185
35.98	2.85613
35.99	2.85909
36	2.83869
36.01	2.83178
36.02	2.85185
36.03	2.83836
36.04	2.85876
36.05	2.85054
36.06	2.85942
36.07	2.85975
36.08	2.84757
36.09	2.82652
36.1	2.83836
36.11	2.83507
36.12	2.86534
36.13	2.86369
36.14	2.82652
36.15	2.8581
36.16	2.85284
36.17	2.83211
36.18	2.86731
36.19	2.82224
36.2	2.8433
36.21	2.81632
36.22	2.87389
36.23	2.86929
36.24	2.83803
36.25	2.83606
36.26	2.86073
36.27	2.86567
36.28	2.82192
36.29	2.83869
36.3	2.87225
36.31	2.84396
36.32	2.85251
36.33	2.84363
36.34	2.83672
36.35	2.88113
36.36	2.87521
36.37	2.86435
36.38	2.85909
36.39	2.86501
36.4	2.85054
36.41	2.85646
36.42	2.82521
36.43	2.86008
36.44	2.86698
36.45	2.86764
36.46	2.84725
36.47	2.8535
36.48	2.8706
36.49	2.87883
36.5	2.8581
36.51	2.82718
36.52	2.87554
36.53	2.85843
36.54	2.84132
36.55	2.87225
36.56	2.85382
36.57	2.84396
36.58	2.84461
36.59	2.86731
36.6	2.83475
36.61	2.84955
36.62	2.84757
36.63	2.85119
36.64	2.82685
36.65	2.87159
36.66	2.84823
36.67	2.841
36.68	2.83705
36.69	2.84626
36.7	2.82159
36.71	2.85942
36.72	2.85284
36.73	2.85021
36.74	2.88179
36.75	2.86106
36.76	2.86665
36.77	2.87521
36.78	2.84297
36.79	2.87159
36.8	2.88804
36.81	2.87488
36.82	2.85547
36.83	2.87685
36.84	2.87883
36.85	2.86271
36.86	2.88475
36.87	2.85777
36.88	2.85777
36.89	2.86534
36.9	2.86501
36.91	2.86205
36.92	2.86896
36.93	2.85218
36.94	2.85251
36.95	2.85711
36.96	2.86336
36.97	2.85218
36.98	2.81402
36.99	2.86172
37	2.86994
37.01	2.83244
37.02	2.85317
37.03	2.86139
37.04	2.86336
37.05	2.86929
37.06	2.87718
37.07	2.86304
37.08	2.85679
37.09	2.85909
37.1	2.87784
37.11	2.85119
37.12	2.85547
37.13	2.8433
37.14	2.85185
37.15	2.86534
37.16	2.84429
37.17	2.8229
37.18	2.8285
37.19	2.83211
37.2	2.82619
37.21	2.82455
37.22	2.82553
37.23	2.83211
37.24	2.8479
37.25	2.83507
37.26	2.85514
37.27	2.84132
37.28	2.82915
37.29	2.83409
37.3	2.86336
37.31	2.85382
37.32	2.86369
37.33	2.8581
37.34	2.82882
37.35	2.86468
37.36	2.86764
37.37	2.83639
37.38	2.84626
37.39	2.8558
37.4	2.85152
37.41	2.8433
37.42	2.86073
37.43	2.82455
37.44	2.85448
37.45	2.82192
37.46	2.82553
37.47	2.83902
37.48	2.86073
37.49	2.84034
37.5	2.83836
37.51	2.82192
37.52	2.83803
37.53	2.8354
37.54	2.8285
37.55	2.85054
37.56	2.86369
37.57	2.81369
37.58	2.80514
37.59	2.83606
37.6	2.86073
37.61	2.85876
37.62	2.84264
37.63	2.8581
37.64	2.86764
37.65	2.8479
37.66	2.85152
37.67	2.83442
37.68	2.8535
37.69	2.8331
37.7	2.82948
37.71	2.80974
37.72	2.82718
37.73	2.83672
37.74	2.86008
37.75	2.85185
37.76	2.85547
37.77	2.86369
37.78	2.8581
37.79	2.87027
37.8	2.81994
37.81	2.8183
37.82	2.8604
37.83	2.82586
37.84	2.85514
37.85	2.84922
37.86	2.90876
37.87	2.87587
37.88	2.84922
37.89	2.85481
37.9	2.86731
37.91	2.8479
37.92	2.8354
37.93	2.84494
37.94	2.82389
37.95	2.86139
37.96	2.85251
37.97	2.85382
37.98	2.84132
37.99	2.84198
38	2.86073
38.01	2.84955
38.02	2.84461
38.03	2.83705
38.04	2.84823
38.05	2.81205
38.06	2.8456
38.07	2.8706
38.08	2.84527
38.09	2.86468
38.1	2.87652
38.11	2.86994
38.12	2.83803
38.13	2.82389
38.14	2.86698
38.15	2.83672
38.16	2.83836
38.17	2.81501
38.18	2.81501
38.19	2.83178
38.2	2.83244
38.21	2.8581
38.22	2.83705
38.23	2.84198
38.24	2.85218
38.25	2.84757
38.26	2.85613
38.27	2.83409
38.28	2.87192
38.29	2.86764
38.3	2.85152
38.31	2.84429
38.32	2.85251
38.33	2.84067
38.34	2.81764
38.35	2.84527
38.36	2.84889
38.37	2.84231
38.38	2.82882
38.39	2.82553
38.4	2.83836
38.41	2.84461
38.42	2.85744
38.43	2.8581
38.44	2.82521
38.45	2.84527
38.46	2.81271
38.47	2.83014
38.48	2.8604
38.49	2.85185
38.5	2.85152
38.51	2.8604
38.52	2.83869
38.53	2.8308
38.54	2.84494
38.55	2.84067
38.56	2.82224
38.57	2.84067
38.58	2.84593
38.59	2.87093
38.6	2.85744
38.61	2.84955
38.62	2.83442
38.63	2.8308
38.64	2.85415
38.65	2.87751
38.66	2.84889
38.67	2.83507
38.68	2.85613
38.69	2.84922
38.7	2.83178
38.71	2.86172
38.72	2.84067
38.73	2.85317
38.74	2.86764
38.75	2.87981
38.76	2.86205
38.77	2.85679
38.78	2.87027
38.79	2.87587
38.8	2.82948
38.81	2.80678
38.82	2.82159
38.83	2.81106
38.84	2.8331
38.85	2.82685
38.86	2.85021
38.87	2.83343
38.88	2.86994
38.89	2.85843
38.9	2.85613
38.91	2.86896
38.92	2.83244
38.93	2.8354
38.94	2.83343
38.95	2.85185
38.96	2.85481
38.97	2.8808
38.98	2.85679
38.99	2.87258
39	2.86501
39.01	2.82915
39.02	2.81863
39.03	2.84396
39.04	2.8456
39.05	2.85317
39.06	2.85251
39.07	2.88935
39.08	2.86172
39.09	2.84593
39.1	2.88508
39.11	2.8479
39.12	2.8308
39.13	2.86336
39.14	2.86336
39.15	2.86139
39.16	2.85119
39.17	2.82553
39.18	2.83902
39.19	2.84461
39.2	2.85975
39.21	2.82455
39.22	2.84527
39.23	2.80843
39.24	2.84429
39.25	2.8558
39.26	2.84363
39.27	2.82685
39.28	2.84461
39.29	2.84001
39.3	2.86534
39.31	2.86764
39.32	2.83277
39.33	2.84527
39.34	2.8706
39.35	2.8706
39.36	2.84955
39.37	2.82784
39.38	2.84396
39.39	2.83178
39.4	2.85514
39.41	2.85218
39.42	2.85021
39.43	2.86698
39.44	2.85711
39.45	2.84067
39.46	2.84527
39.47	2.84231
39.48	2.8535
39.49	2.89067
39.5	2.80876
39.51	2.88442
39.52	2.85317
39.53	2.86633
39.54	2.82027
39.55	2.8456
39.56	2.82652
39.57	2.82027
39.58	2.82652
39.59	2.83738
39.6	2.85415
39.61	2.8354
39.62	2.81764
39.63	2.87027
39.64	2.84922
39.65	2.81994
39.66	2.83343
39.67	2.83771
39.68	2.83902
39.69	2.86139
39.7	2.82915
39.71	2.85021
39.72	2.83738
39.73	2.83902
39.74	2.85448
39.75	2.86797
39.76	2.86896
39.77	2.85382
39.78	2.88179
39.79	2.85711
39.8	2.85448
39.81	2.83705
39.82	2.84626
39.83	2.82455
39.84	2.8354
39.85	2.84889
39.86	2.86304
39.87	2.86534
39.88	2.84132
39.89	2.86665
39.9	2.87915
39.91	2.87455
39.92	2.83211
39.93	2.83836
39.94	2.86369
39.95	2.84922
39.96	2.83244
39.97	2.8229
39.98	2.84659
39.99	2.84067
40	2.83146
40.01	2.84297
40.02	2.86304
40.03	2.85777
40.04	2.85382
40.05	2.85613
40.06	2.83178
40.07	2.85021
40.08	2.84198
40.09	2.87225
40.1	2.85251
40.11	2.84429
40.12	2.85481
40.13	2.83738
40.14	2.83376
40.15	2.85218
40.16	2.85613
40.17	2.82323
40.18	2.85251
40.19	2.83573
40.2	2.85086
40.21	2.84231
40.22	2.86633
40.23	2.84692
40.24	2.85679
40.25	2.85711
40.26	2.84264
40.27	2.8206
40.28	2.83738
40.29	2.84297
40.3	2.81632
40.31	2.8354
40.32	2.81271
40.33	2.84659
40.34	2.86797
40.35	2.81468
40.36	2.82521
40.37	2.83935
40.38	2.8285
40.39	2.83211
40.4	2.84626
40.41	2.82981
40.42	2.83705
40.43	2.81863
40.44	2.85054
40.45	2.84823
40.46	2.84067
40.47	2.86369
40.48	2.85646
40.49	2.8285
40.5	2.83014
40.51	2.83606
40.52	2.83343
40.53	2.8285
40.54	2.85679
40.55	2.82915
40.56	2.83376
40.57	2.841
40.58	2.85744
40.59	2.86172
40.6	2.8456
40.61	2.86106
40.62	2.8581
40.63	2.8729
40.64	2.8604
40.65	2.8206
40.66	2.84725
40.67	2.83606
40.68	2.82586
40.69	2.83705
40.7	2.84725
40.71	2.83475
40.72	2.83047
40.73	2.84955
40.74	2.88146
40.75	2.86567
40.76	2.86665
40.77	2.84757
40.78	2.83211
40.79	2.79757
40.8	2.80942
40.81	2.83672
40.82	2.85876
40.83	2.83803
40.84	2.84626
40.85	2.85382
40.86	2.83507
40.87	2.80645
40.88	2.80218
40.89	2.80876
40.9	2.83178
40.91	2.8479
40.92	2.84067
40.93	2.84264
40.94	2.8808
40.95	2.85547
40.96	2.86106
40.97	2.8456
40.98	2.85711
40.99	2.86238
41	2.85777
41.01	2.84856
41.02	2.85744
41.03	2.83178
41.04	2.84725
41.05	2.85514
41.06	2.86961
41.07	2.86304
41.08	2.88508
41.09	2.8433
41.1	2.84429
41.11	2.86731
41.12	2.87323
41.13	2.85481
41.14	2.83836
41.15	2.80843
41.16	2.84067
41.17	2.82586
41.18	2.83705
41.19	2.83705
41.2	2.87685
41.21	2.85251
41.22	2.87915
41.23	2.8581
41.24	2.8081
41.25	2.83442
41.26	2.83014
41.27	2.87126
41.28	2.83507
41.29	2.83935
41.3	2.8331
41.31	2.83705
41.32	2.86271
41.33	2.85086
41.34	2.83738
41.35	2.85021
41.36	2.87784
41.37	2.85054
41.38	2.81896
41.39	2.83277
41.4	2.83705
41.41	2.84034
41.42	2.83672
41.43	2.82784
41.44	2.84198
41.45	2.8456
41.46	2.85909
41.47	2.82751
41.48	2.84165
41.49	2.85284
41.5	2.8456
41.51	2.85613
41.52	2.86139
41.53	2.85021
41.54	2.85152
41.55	2.83014
41.56	2.86106
41.57	2.87619
41.58	2.84922
41.59	2.85909
41.6	2.85975
41.61	2.81632
41.62	2.81863
41.63	2.82948
41.64	2.8354
41.65	2.8604
41.66	2.87126
41.67	2.83935
41.68	2.841
41.69	2.84297
41.7	2.85679
41.71	2.83968
41.72	2.85547
41.73	2.85679
41.74	2.86994
41.75	2.86271
41.76	2.85975
41.77	2.85415
41.78	2.84593
41.79	2.83738
41.8	2.85481
41.81	2.82356
41.82	2.83836
41.83	2.8456
41.84	2.83902
41.85	2.85481
41.86	2.84067
41.87	2.84231
41.88	2.84527
41.89	2.89231
41.9	2.86534
41.91	2.83277
41.92	2.84001
41.93	2.83738
41.94	2.84593
41.95	2.81896
41.96	2.83244
41.97	2.8433
41.98	2.82093
41.99	2.84692
42	2.86698
42.01	2.83573
42.02	2.89264
42.03	2.85744
42.04	2.85086
42.05	2.86764
42.06	2.84757
42.07	2.84067
42.08	2.85843
42.09	2.86863
42.1	2.83935
42.11	2.85054
42.12	2.85843
42.13	2.83409
42.14	2.83211
42.15	2.8456
42.16	2.84396
42.17	2.85119
42.18	2.86468
42.19	2.84659
42.2	2.84757
42.21	2.83803
42.22	2.8808
42.23	2.87192
42.24	2.87356
42.25	2.88277
42.26	2.86633
42.27	2.86501
42.28	2.83277
42.29	2.85218
42.3	2.83277
42.31	2.85547
42.32	2.87784
42.33	2.82488
42.34	2.84297
42.35	2.83968
42.36	2.83376
42.37	2.81731
42.38	2.84429
42.39	2.88442
42.4	2.84955
42.41	2.87587
42.42	2.86435
42.43	2.85251
42.44	2.8479
42.45	2.83869
42.46	2.84856
42.47	2.81731
42.48	2.85481
42.49	2.87356
42.5	2.84593
42.51	2.841
42.52	2.83836
42.53	2.84922
42.54	2.84132
42.55	2.84396
42.56	2.84692
42.57	2.84823
42.58	2.83935
42.59	2.84461
42.6	2.84757
42.61	2.83409
42.62	2.83014
42.63	2.83376
42.64	2.86238
42.65	2.83836
42.66	2.88014
42.67	2.85021
42.68	2.86501
42.69	2.84889
42.7	2.84067
42.71	2.84231
42.72	2.85119
42.73	2.8683
42.74	2.86271
42.75	2.85646
42.76	2.87981
42.77	2.87587
42.78	2.85218
42.79	2.82652
42.8	2.85711
42.81	2.83869
42.82	2.85679
42.83	2.84461
42.84	2.86961
42.85	2.81764
42.86	2.86402
42.87	2.85251
42.88	2.84725
42.89	2.88244
42.9	2.84659
42.91	2.84955
42.92	2.86961
42.93	2.86238
42.94	2.85909
42.95	2.87422
42.96	2.86008
42.97	2.87455
42.98	2.86435
42.99	2.86139
43	2.87389
43.01	2.88212
43.02	2.86435
43.03	2.85744
43.04	2.89001
43.05	2.86731
43.06	2.85317
43.07	2.86468
43.08	2.86205
43.09	2.84429
43.1	2.85613
43.11	2.85646
43.12	2.83376
43.13	2.84034
43.14	2.84198
43.15	2.82685
43.16	2.85909
43.17	2.83277
43.18	2.83146
43.19	2.85711
43.2	2.84988
43.21	2.8729
43.22	2.84001
43.23	2.82488
43.24	2.87883
43.25	2.86468
43.26	2.84034
43.27	2.8479
43.28	2.84198
43.29	2.82553
43.3	2.83047
43.31	2.84494
43.32	2.84856
43.33	2.8683
43.34	2.86929
43.35	2.84396
43.36	2.85876
43.37	2.8729
43.38	2.84494
43.39	2.84659
43.4	2.87784
43.41	2.81731
43.42	2.85843
43.43	2.85317
43.44	2.83803
43.45	2.83047
43.46	2.83672
43.47	2.85547
43.48	2.83639
43.49	2.84198
43.5	2.80909
43.51	2.8558
43.52	2.82784
43.53	2.83113
43.54	2.84659
43.55	2.84692
43.56	2.83573
43.57	2.84264
43.58	2.82192
43.59	2.83606
43.6	2.87455
43.61	2.86172
43.62	2.84461
43.63	2.82389
43.64	2.84165
43.65	2.84626
43.66	2.85876
43.67	2.86435
43.68	2.85547
43.69	2.83146
43.7	2.83178
43.71	2.85876
43.72	2.8479
43.73	2.86435
43.74	2.84527
43.75	2.83376
43.76	2.81106
43.77	2.84461
43.78	2.83178
43.79	2.83146
43.8	2.84527
43.81	2.86271
43.82	2.87159
43.83	2.86369
43.84	2.8808
43.85	2.86633
43.86	2.85054
43.87	2.83573
43.88	2.82784
43.89	2.84067
43.9	2.8456
43.91	2.82488
43.92	2.8308
43.93	2.87093
43.94	2.85679
43.95	2.85777
43.96	2.84988
43.97	2.84593
43.98	2.86468
43.99	2.86698
44	2.87652
44.01	2.82323
44.02	2.8206
44.03	2.86369
44.04	2.85415
44.05	2.81863
44.06	2.85975
44.07	2.85448
44.08	2.84198
44.09	2.86304
44.1	2.87521
44.11	2.85448
44.12	2.87422
44.13	2.85448
44.14	2.86139
44.15	2.87521
44.16	2.84165
44.17	2.82389
44.18	2.86468
44.19	2.87159
44.2	2.84297
44.21	2.86139
44.22	2.83803
44.23	2.83705
44.24	2.81172
44.25	2.82817
44.26	2.81435
44.27	2.80909
44.28	2.83442
44.29	2.8604
44.3	2.87126
44.31	2.85843
44.32	2.84626
44.33	2.84034
44.34	2.81961
44.35	2.82027
44.36	2.84429
44.37	2.85679
44.38	2.82422
44.39	2.82817
44.4	2.83869
44.41	2.82257
44.42	2.79757
44.43	2.85415
44.44	2.85185
44.45	2.84922
44.46	2.84922
44.47	2.85777
44.48	2.84527
44.49	2.82882
44.5	2.85481
44.51	2.86534
44.52	2.85744
44.53	2.87883
44.54	2.86797
44.55	2.84823
44.56	2.8581
44.57	2.85054
44.58	2.84659
44.59	2.84626
44.6	2.83672
44.61	2.79922
44.62	2.81501
44.63	2.83475
44.64	2.86698
44.65	2.85086
44.66	2.82784
44.67	2.84034
44.68	2.83869
44.69	2.82619
44.7	2.83672
44.71	2.866
44.72	2.83014
44.73	2.82422
44.74	2.85876
44.75	2.86698
44.76	2.84067
44.77	2.85086
44.78	2.83211
44.79	2.8331
44.8	2.84856
44.81	2.84494
44.82	2.82784
44.83	2.84231
44.84	2.84034
44.85	2.87225
44.86	2.86238
44.87	2.8479
44.88	2.8558
44.89	2.85382
44.9	2.85284
44.91	2.8308
44.92	2.83869
44.93	2.84297
44.94	2.87126
44.95	2.8456
44.96	2.83869
44.97	2.83442
44.98	2.81007
44.99	2.83409
45	2.84889
45.01	2.84494
45.02	2.81336
45.03	2.84659
45.04	2.8229
45.05	2.81205
45.06	2.85744
45.07	2.83442
45.08	2.83836
45.09	2.84692
45.1	2.82652
45.11	2.81402
45.12	2.85119
45.13	2.84527
45.14	2.82718
45.15	2.83935
45.16	2.8683
45.17	2.86139
45.18	2.84494
45.19	2.85481
45.2	2.84165
45.21	2.87554
45.22	2.85975
45.23	2.84297
45.24	2.85086
45.25	2.85876
45.26	2.81567
45.27	2.82027
45.28	2.83475
45.29	2.85054
45.3	2.84725
45.31	2.84461
45.32	2.85251
45.33	2.84626
45.34	2.86008
45.35	2.85415
45.36	2.85777
45.37	2.84659
45.38	2.86238
45.39	2.85909
45.4	2.85876
45.41	2.86929
45.42	2.84626
45.43	2.85975
45.44	2.85415
45.45	2.81961
45.46	2.84297
45.47	2.82553
45.48	2.85185
45.49	2.82027
45.5	2.83803
45.51	2.83836
45.52	2.8683
45.53	2.84626
45.54	2.85481
45.55	2.86896
45.56	2.84132
45.57	2.86238
45.58	2.83672
45.59	2.85152
45.6	2.84264
45.61	2.81698
45.62	2.84034
45.63	2.85909
45.64	2.87455
45.65	2.85251
45.66	2.82455
45.67	2.8535
45.68	2.83573
45.69	2.84001
45.7	2.83968
45.71	2.83409
45.72	2.81665
45.73	2.85777
45.74	2.84527
45.75	2.84461
45.76	2.86008
45.77	2.86863
45.78	2.87027
45.79	2.84067
45.8	2.85317
45.81	2.86172
45.82	2.84593
45.83	2.84067
45.84	2.85876
45.85	2.84725
45.86	2.85646
45.87	2.85086
45.88	2.86106
45.89	2.85251
45.9	2.84757
45.91	2.87554
45.92	2.85975
45.93	2.86402
45.94	2.83935
45.95	2.85054
45.96	2.82718
45.97	2.85646
45.98	2.85744
45.99	2.85284
46	2.84659
46.01	2.83507
46.02	2.82521
46.03	2.85284
46.04	2.86797
46.05	2.88771
46.06	2.87323
46.07	2.81928
46.08	2.83573
46.09	2.82323
46.1	2.84396
46.11	2.86731
46.12	2.84856
46.13	2.86172
46.14	2.85975
46.15	2.8433
46.16	2.84429
46.17	2.82817
46.18	2.84001
46.19	2.84264
46.2	2.8285
46.21	2.83211
46.22	2.86205
46.23	2.81435
46.24	2.8354
46.25	2.8479
46.26	2.85942
46.27	2.85448
46.28	2.84725
46.29	2.85415
46.3	2.87192
46.31	2.83507
46.32	2.85613
46.33	2.86304
46.34	2.85152
46.35	2.84889
46.36	2.841
46.37	2.8354
46.38	2.86172
46.39	2.8058
46.4	2.84461
46.41	2.84132
46.42	2.81599
46.43	2.87948
46.44	2.82882
46.45	2.85317
46.46	2.83738
46.47	2.86172
46.48	2.83442
46.49	2.84823
46.5	2.86863
46.51	2.84626
46.52	2.80942
46.53	2.84198
46.54	2.83672
46.55	2.87718
46.56	2.83803
46.57	2.83771
46.58	2.84725
46.59	2.83836
46.6	2.85843
46.61	2.81961
46.62	2.85317
46.63	2.88771
46.64	2.82619
46.65	2.83968
46.66	2.81303
46.67	2.83277
46.68	2.8308
46.69	2.83968
46.7	2.83573
46.71	2.83211
46.72	2.83672
46.73	2.84067
46.74	2.82553
46.75	2.85448
46.76	2.86994
46.77	2.85942
46.78	2.8683
46.79	2.84988
46.8	2.84132
46.81	2.86797
46.82	2.82257
46.83	2.84429
46.84	2.84461
46.85	2.83409
46.86	2.88277
46.87	2.88475
46.88	2.87948
46.89	2.83639
46.9	2.84593
46.91	2.81764
46.92	2.84922
46.93	2.82751
46.94	2.85975
46.95	2.83705
46.96	2.8331
46.97	2.86929
46.98	2.85218
46.99	2.86797
47	2.82817
47.01	2.81468
47.02	2.82948
47.03	2.85415
47.04	2.88179
47.05	2.84396
47.06	2.82192
47.07	2.85119
47.08	2.81797
47.09	2.86402
47.1	2.86435
47.11	2.85152
47.12	2.87883
47.13	2.83935
47.14	2.86567
47.15	2.87126
47.16	2.83803
47.17	2.81534
47.18	2.82455
47.19	2.83376
47.2	2.87192
47.21	2.87619
47.22	2.83606
47.23	2.82948
47.24	2.86501
47.25	2.83738
47.26	2.82948
47.27	2.88146
47.28	2.83803
47.29	2.84297
47.3	2.8581
47.31	2.86402
47.32	2.84494
47.33	2.84264
47.34	2.81698
47.35	2.81599
47.36	2.81534
47.37	2.83968
47.38	2.86008
47.39	2.86797
47.4	2.8581
47.41	2.84363
47.42	2.85613
47.43	2.8479
47.44	2.85711
47.45	2.86304
47.46	2.84626
47.47	2.84922
47.48	2.82192
47.49	2.86139
47.5	2.85777
47.51	2.84955
47.52	2.85448
47.53	2.85021
47.54	2.84198
47.55	2.81731
47.56	2.79626
47.57	2.83935
47.58	2.8604
47.59	2.84198
47.6	2.83869
47.61	2.83211
47.62	2.81863
47.63	2.79724
47.64	2.8581
47.65	2.84757
47.66	2.83178
47.67	2.87981
47.68	2.84363
47.69	2.8433
47.7	2.87126
47.71	2.89955
47.72	2.86106
47.73	2.86797
47.74	2.84198
47.75	2.8331
47.76	2.83409
47.77	2.85218
47.78	2.83376
47.79	2.82192
47.8	2.83606
47.81	2.85613
47.82	2.8729
47.83	2.86008
47.84	2.85415
47.85	2.83409
47.86	2.83113
47.87	2.83869
47.88	2.85843
47.89	2.84626
47.9	2.84198
47.91	2.82685
47.92	2.82751
47.93	2.85843
47.94	2.88409
47.95	2.85415
47.96	2.82751
47.97	2.81896
47.98	2.83705
47.99	2.83738
48	2.83968
48.01	2.86994
48.02	2.8331
48.03	2.82817
48.04	2.83376
48.05	2.86336
48.06	2.86304
48.07	2.8535
48.08	2.8433
48.09	2.83639
48.1	2.85119
48.11	2.86205
48.12	2.84823
48.13	2.84297
48.14	2.84264
48.15	2.83803
48.16	2.85317
48.17	2.83968
48.18	2.83606
48.19	2.81336
48.2	2.8308
48.21	2.82652
48.22	2.83047
48.23	2.87422
48.24	2.8479
48.25	2.85382
48.26	2.84429
48.27	2.84955
48.28	2.82652
48.29	2.84659
48.3	2.87323
48.31	2.87883
48.32	2.83376
48.33	2.81731
48.34	2.8433
48.35	2.83869
48.36	2.8854
48.37	2.8479
48.38	2.83507
48.39	2.85119
48.4	2.84889
48.41	2.83244
48.42	2.85218
48.43	2.8433
48.44	2.80613
48.45	2.85382
48.46	2.86468
48.47	2.86369
48.48	2.84856
48.49	2.83014
48.5	2.82521
48.51	2.84988
48.52	2.86304
48.53	2.85613
48.54	2.83935
48.55	2.82948
48.56	2.841
48.57	2.82455
48.58	2.81303
48.59	2.83935
48.6	2.81632
48.61	2.83211
48.62	2.83803
48.63	2.86731
48.64	2.85021
48.65	2.8604
48.66	2.83409
48.67	2.82521
48.68	2.82652
48.69	2.86698
48.7	2.86468
48.71	2.86567
48.72	2.84922
48.73	2.86994
48.74	2.86139
48.75	2.88113
48.76	2.8433
48.77	2.85514
48.78	2.83277
48.79	2.85613
48.8	2.86271
48.81	2.85909
48.82	2.841
48.83	2.85086
48.84	2.88573
48.85	2.83869
48.86	2.80942
48.87	2.88179
48.88	2.87718
48.89	2.89133
48.9	2.84692
48.91	2.82455
48.92	2.85218
48.93	2.81501
48.94	2.83836
48.95	2.83178
48.96	2.84626
48.97	2.8785
48.98	2.83573
48.99	2.82948
49	2.83869
49.01	2.82882
49.02	2.82685
49.03	2.84494
49.04	2.84725
49.05	2.8604
49.06	2.86764
49.07	2.84297
49.08	2.82882
49.09	2.83211
49.1	2.82882
49.11	2.81402
49.12	2.80974
49.13	2.87027
49.14	2.86764
49.15	2.86435
49.16	2.85547
49.17	2.85382
49.18	2.81435
49.19	2.83968
49.2	2.84461
49.21	2.85119
49.22	2.8604
49.23	2.83902
49.24	2.82257
49.25	2.82323
49.26	2.85086
49.27	2.84757
49.28	2.85711
49.29	2.86435
49.3	2.85711
49.31	2.84823
49.32	2.84692
49.33	2.83639
49.34	2.85777
49.35	2.87521
49.36	2.84494
49.37	2.8535
49.38	2.85054
49.39	2.81928
49.4	2.83968
49.41	2.83771
49.42	2.8308
49.43	2.84856
49.44	2.81863
49.45	2.82159
49.46	2.84527
49.47	2.87093
49.48	2.86698
49.49	2.88244
49.5	2.88935
49.51	2.87356
49.52	2.85613
49.53	2.86929
49.54	2.83211
49.55	2.80974
49.56	2.84165
49.57	2.85547
49.58	2.87521
49.59	2.82915
49.6	2.82093
49.61	2.8206
49.62	2.84461
49.63	2.85876
49.64	2.86468
49.65	2.83935
49.66	2.82685
49.67	2.85744
49.68	2.8558
49.69	2.8331
49.7	2.82257
49.71	2.81599
49.72	2.82323
49.73	2.85646
49.74	2.85382
49.75	2.85514
49.76	2.85909
49.77	2.85152
49.78	2.81698
49.79	2.7854
49.8	2.80086
49.81	2.8354
49.82	2.86764
49.83	2.83935
49.84	2.8104
49.85	2.81764
49.86	2.82784
49.87	2.89264
49.88	2.85646
49.89	2.85646
49.9	2.83113
49.91	2.86369
49.92	2.87192
49.93	2.84823
49.94	2.86304
49.95	2.83836
49.96	2.84757
49.97	2.85054
49.98	2.83869
49.99	2.87258
50	2.85514
